accel_x,accel_y,accel_z,gyro_x,gyro_y,gyro_z
0.80,-0.43,0.47,-1.98,0.46,0.06
0.79,-0.42,0.48,-2.06,0.06,0.14
0.79,-0.43,0.47,-1.94,0.14,0.37
0.80,-0.42,0.47,-1.42,-0.53,0.11
0.80,-0.43,0.47,-1.51,-0.63,0.35
0.81,-0.43,0.48,-1.42,0.11,0.00
0.81,-0.43,0.48,-1.19,0.82,-0.23
0.80,-0.43,0.46,-1.02,0.46,-0.40
0.80,-0.43,0.47,-1.65,0.24,-0.21
0.81,-0.43,0.47,-2.40,-0.31,-0.26
0.81,-0.43,0.46,-2.73,-0.73,-0.38
0.80,-0.43,0.48,-2.47,-0.35,-0.02
0.80,-0.43,0.48,-2.70,-0.56,0.14
0.80,-0.43,0.47,-2.90,-0.47,-0.17
0.82,-0.43,0.48,-1.86,-0.14,-0.53
0.81,-0.43,0.46,-1.30,-0.89,-0.69
0.81,-0.42,0.44,-1.85,-2.46,-0.09
0.82,-0.42,0.44,-2.38,-3.45,0.90
0.80,-0.42,0.48,-1.39,-4.35,1.08
0.79,-0.42,0.49,-1.01,-2.53,0.15
0.80,-0.43,0.48,0.60,-0.44,-0.44
0.81,-0.43,0.48,1.56,0.23,-1.33
0.81,-0.44,0.46,0.84,-1.04,-0.96
0.80,-0.44,0.45,-0.89,-2.92,-0.03
0.80,-0.44,0.45,-1.98,-2.20,1.28
0.79,-0.44,0.49,-2.35,-0.20,0.96
0.80,-0.43,0.47,-2.44,0.29,0.75
0.80,-0.43,0.47,-2.60,-0.43,0.78
0.80,-0.43,0.47,-2.92,-0.60,0.72
0.81,-0.42,0.46,-2.32,-0.55,0.38
0.81,-0.42,0.46,-1.77,-0.73,-0.06
0.81,-0.42,0.46,-2.00,-0.63,0.26
0.81,-0.42,0.47,-2.56,-0.73,0.38
0.81,-0.42,0.46,-3.04,-1.01,-0.05
0.81,-0.42,0.46,-2.41,-1.54,-0.14
0.81,-0.42,0.48,-1.39,-1.51,-0.52
0.80,-0.42,0.48,-0.43,-0.81,-0.81
0.80,-0.42,0.47,-0.18,0.08,-1.16
0.81,-0.43,0.47,1.15,0.32,-0.98
0.82,-0.42,0.44,-1.11,-1.36,0.02
0.81,-0.43,0.46,-2.05,-3.08,0.61
0.80,-0.43,0.45,-3.16,-2.26,0.84
0.80,-0.42,0.47,-0.90,-0.34,-0.38
0.81,-0.43,0.46,0.35,0.38,-0.35
0.81,-0.42,0.46,-0.78,0.02,-0.11
0.81,-0.42,0.46,-2.63,-2.02,0.17
0.80,-0.43,0.46,-2.53,-1.83,0.37
0.80,-0.43,0.46,-1.80,-0.67,0.34
0.80,-0.43,0.46,-1.34,-0.05,0.23
0.80,-0.43,0.48,-2.18,0.03,0.76
0.80,-0.43,0.47,-3.18,0.40,1.36
0.80,-0.42,0.47,-3.37,0.18,1.69
0.80,-0.43,0.47,-2.50,0.03,1.39
0.80,-0.42,0.47,-1.63,-0.05,1.19
0.81,-0.43,0.46,-1.37,0.09,1.24
0.81,-0.42,0.46,-1.51,-0.21,0.89
0.81,-0.43,0.46,-1.71,-0.02,0.73
0.81,-0.43,0.47,-1.69,-0.27,0.52
0.81,-0.43,0.46,-1.27,-0.34,0.11
0.81,-0.43,0.47,-1.13,-0.34,0.09
0.81,-0.42,0.46,-1.62,-0.03,-0.05
0.81,-0.42,0.47,-1.74,-0.08,-0.11
0.82,-0.43,0.47,-1.63,-0.15,-0.17
0.81,-0.43,0.47,-1.63,0.12,-0.06
0.80,-0.43,0.45,-1.74,-0.09,-0.32
0.81,-0.43,0.46,-1.79,-0.49,-0.02
0.80,-0.42,0.47,-2.05,-0.46,0.11
0.80,-0.43,0.46,-2.08,-0.09,0.12
0.80,-0.43,0.46,-2.12,-0.09,0.18
0.81,-0.42,0.46,-1.80,-0.43,0.38
0.81,-0.42,0.46,-1.68,-0.38,0.50
0.80,-0.42,0.47,-1.42,-0.23,0.24
0.80,-0.42,0.47,-1.08,-0.35,0.27
0.80,-0.43,0.47,-0.87,-0.78,0.52
0.81,-0.42,0.47,-1.27,-0.53,0.50
0.81,-0.42,0.47,-1.31,-0.29,0.37
0.81,-0.42,0.47,-0.89,0.03,0.32
0.81,-0.43,0.46,-0.89,0.20,0.03
0.81,-0.42,0.47,-1.56,-0.35,0.05
0.81,-0.42,0.47,-2.12,0.06,-0.20
0.81,-0.43,0.46,-2.32,0.24,-0.12
0.81,-0.43,0.46,-2.00,0.24,-0.06
0.80,-0.42,0.47,-2.69,-1.04,0.18
0.81,-0.43,0.47,-2.70,-0.09,-0.05
0.81,-0.42,0.46,-2.18,0.26,-0.20
0.82,-0.42,0.46,-2.11,-0.67,-0.02
0.82,-0.42,0.44,-2.99,-2.18,0.96
0.81,-0.41,0.47,-2.49,-4.11,1.04
0.78,-0.42,0.47,-2.49,-2.90,0.50
0.79,-0.42,0.49,-0.49,-0.26,-0.73
0.81,-0.42,0.47,1.42,1.08,-1.13
0.81,-0.43,0.47,0.89,0.23,-1.16
0.81,-0.44,0.44,-1.92,-1.56,0.12
0.79,-0.44,0.44,-2.89,-2.52,1.04
0.80,-0.43,0.46,-2.87,-1.27,0.75
0.80,-0.43,0.48,-2.90,0.15,0.56
0.80,-0.43,0.47,-3.08,-0.35,0.73
0.80,-0.43,0.45,-2.85,-0.70,0.99
0.81,-0.42,0.46,-2.82,-0.79,1.15
0.82,-0.42,0.47,-2.63,-0.69,0.81
0.81,-0.42,0.47,-2.64,-0.12,0.72
0.81,-0.42,0.46,-2.24,0.40,0.64
0.82,-0.42,0.45,-2.67,-0.47,0.87
0.81,-0.42,0.47,-2.49,-0.93,0.85
0.81,-0.42,0.47,-2.09,-0.56,0.67
0.81,-0.42,0.47,-1.13,0.29,0.23
0.81,-0.42,0.47,-0.61,-0.02,-0.23
0.80,-0.43,0.47,-0.92,0.50,-0.34
0.81,-0.43,0.46,-0.47,1.22,-0.56
0.82,-0.43,0.46,-0.26,-0.34,-0.67
0.82,-0.43,0.45,-1.48,-0.89,0.35
0.81,-0.43,0.45,-2.70,-2.50,0.37
0.79,-0.42,0.47,-2.29,-0.60,0.27
0.80,-0.42,0.47,-1.04,-0.09,-0.15
0.81,-0.41,0.46,-1.04,0.05,-0.26
0.81,-0.42,0.46,-2.12,-1.66,0.12
0.81,-0.43,0.45,-2.31,-1.88,0.69
0.81,-0.42,0.45,-2.00,-1.05,0.81
0.81,-0.43,0.46,-1.74,-0.43,0.55
0.80,-0.43,0.47,-2.23,0.41,1.04
0.80,-0.43,0.47,-3.11,0.40,1.68
0.80,-0.43,0.47,-3.19,0.64,1.77
0.80,-0.43,0.47,-2.78,1.08,1.74
0.81,-0.42,0.46,-1.88,1.74,1.05
0.81,-0.42,0.46,-0.34,1.31,0.31
0.81,-0.43,0.46,-0.63,0.85,0.93
0.81,-0.42,0.46,-1.59,0.75,0.79
0.81,-0.42,0.46,-2.20,0.47,0.89
0.81,-0.42,0.46,-2.11,0.85,0.52
0.80,-0.43,0.46,-1.37,0.84,0.31
0.80,-0.43,0.45,-1.25,-0.02,0.03
0.81,-0.43,0.47,-1.53,0.29,0.35
0.80,-0.43,0.47,-2.23,0.78,0.29
0.81,-0.42,0.47,-2.05,0.64,-0.96
0.83,-0.41,0.46,-1.51,0.73,-2.18
0.81,-0.41,0.45,-1.34,-0.79,-0.61
0.81,-0.41,0.47,-1.62,-1.37,-0.11
0.81,-0.41,0.47,-1.92,-1.28,0.72
0.82,-0.40,0.45,-1.86,-1.13,0.67
0.81,-0.42,0.47,-1.85,1.36,1.80
0.80,-0.43,0.46,-1.40,2.06,2.00
0.79,-0.43,0.47,-1.66,1.68,2.90
0.80,-0.43,0.46,-2.32,1.04,3.22
0.83,-0.40,0.45,-2.52,3.66,3.01
0.80,-0.44,0.45,-0.92,1.08,1.30
0.77,-0.43,0.46,-1.01,1.24,2.82
0.80,-0.43,0.45,-2.69,0.09,4.52
0.80,-0.43,0.46,-4.14,1.34,4.38
0.80,-0.43,0.46,-3.73,2.41,3.51
0.80,-0.44,0.47,-2.35,2.98,4.69
0.81,-0.43,0.47,-2.70,2.49,3.92
0.81,-0.43,0.47,-3.16,1.45,3.56
0.81,-0.43,0.46,-3.63,1.28,2.95
0.81,-0.45,0.46,-3.91,0.89,2.56
0.80,-0.46,0.46,-3.42,0.35,2.00
0.80,-0.45,0.46,-4.41,0.24,0.43
0.79,-0.46,0.46,-3.94,-0.61,0.69
0.79,-0.45,0.47,-3.28,-0.85,2.14
0.82,-0.44,0.45,-3.95,0.14,2.20
0.83,-0.42,0.44,-4.12,-0.20,2.05
0.80,-0.43,0.46,-4.05,-1.40,1.95
0.77,-0.43,0.49,-4.49,-1.54,2.14
0.77,-0.43,0.47,-3.04,-1.02,1.86
0.80,-0.43,0.48,0.14,-1.22,0.50
0.80,-0.45,0.46,1.48,-2.09,-0.69
0.79,-0.45,0.46,0.61,-2.05,1.57
0.78,-0.44,0.45,-0.27,-0.17,5.51
0.79,-0.44,0.45,0.17,2.63,8.50
0.77,-0.44,0.43,1.92,3.92,11.73
0.77,-0.45,0.42,3.34,3.21,12.58
0.76,-0.46,0.45,2.73,1.08,16.44
0.77,-0.47,0.48,-0.20,1.28,17.48
0.80,-0.46,0.51,-2.23,2.64,17.77
0.81,-0.39,0.46,-1.16,-1.45,17.62
0.85,-0.39,0.48,-1.53,-2.56,16.56
0.83,-0.41,0.49,-1.34,-3.31,14.15
0.80,-0.42,0.48,-0.15,-3.02,12.81
0.81,-0.45,0.49,1.44,-5.45,11.56
0.80,-0.45,0.46,0.72,-4.47,8.32
0.79,-0.45,0.47,-0.67,-4.53,6.87
0.80,-0.47,0.46,-2.20,-2.49,6.79
0.80,-0.46,0.45,-3.54,-3.18,5.76
0.80,-0.44,0.47,-3.47,-6.18,5.97
0.82,-0.45,0.47,-3.86,-8.58,6.85
0.81,-0.45,0.46,-4.24,-7.16,4.93
0.80,-0.45,0.48,-5.07,-5.01,2.18
0.80,-0.44,0.48,-4.99,-2.75,-0.53
0.81,-0.44,0.48,-6.15,-4.00,-1.50
0.82,-0.43,0.47,-7.77,-5.30,-3.62
0.81,-0.44,0.46,-8.55,-5.53,-5.80
0.81,-0.44,0.46,-8.67,-6.00,-8.43
0.80,-0.46,0.44,-9.08,-6.58,-10.05
0.80,-0.47,0.46,-9.91,-5.53,-9.57
0.79,-0.48,0.46,-8.82,-4.73,-8.85
0.79,-0.47,0.46,-6.14,-2.60,-8.17
0.79,-0.47,0.47,-3.56,-0.64,-7.77
0.79,-0.47,0.48,-1.01,0.60,-7.39
0.79,-0.46,0.47,0.56,1.48,-6.81
0.79,-0.45,0.46,1.47,0.12,-5.86
0.80,-0.44,0.46,1.13,-0.14,-5.01
0.81,-0.44,0.45,0.98,0.08,-5.42
0.81,-0.44,0.45,1.62,0.08,-6.06
0.81,-0.45,0.45,2.31,1.79,-5.95
0.81,-0.45,0.46,2.03,4.58,-6.18
0.81,-0.44,0.43,2.34,4.66,-7.10
0.80,-0.45,0.44,1.60,2.70,-5.66
0.80,-0.45,0.44,0.20,3.45,-4.58
0.80,-0.45,0.44,-0.95,4.58,-4.35
0.80,-0.45,0.43,-0.43,4.26,-3.89
0.80,-0.45,0.44,-0.87,3.71,-3.40
0.79,-0.45,0.44,-1.44,4.24,-2.40
0.78,-0.45,0.45,-2.02,3.79,-0.73
0.80,-0.43,0.45,-2.46,3.57,0.58
0.80,-0.43,0.46,-1.27,3.37,0.82
0.80,-0.44,0.46,-0.38,2.08,1.60
0.79,-0.44,0.46,-0.84,2.15,2.35
0.80,-0.44,0.45,-0.85,2.52,2.18
0.80,-0.44,0.44,-0.29,2.06,1.97
0.80,-0.44,0.46,-1.27,2.87,2.81
0.79,-0.44,0.46,-2.14,1.40,4.00
0.79,-0.44,0.46,-3.28,1.47,5.39
0.80,-0.43,0.47,-3.69,2.35,5.50
0.79,-0.44,0.46,-3.69,2.46,5.83
0.79,-0.44,0.47,-3.57,2.37,6.17
0.79,-0.44,0.47,-3.47,0.98,6.66
0.81,-0.43,0.48,-4.21,1.74,7.07
0.80,-0.44,0.46,-4.08,2.00,7.10
0.80,-0.44,0.47,-3.63,1.98,7.18
0.79,-0.44,0.46,-3.77,0.99,7.44
0.80,-0.45,0.46,-3.59,-0.37,7.56
0.80,-0.45,0.47,-3.65,-0.56,7.28
0.81,-0.44,0.45,-4.50,-1.83,7.37
0.82,-0.44,0.45,-4.75,-3.51,8.12
0.81,-0.43,0.45,-3.82,-4.53,7.54
0.79,-0.44,0.47,-3.80,-3.73,5.95
0.77,-0.44,0.47,-3.74,-0.52,4.56
0.79,-0.45,0.49,-1.04,1.97,4.08
0.80,-0.46,0.47,-0.02,1.73,3.34
0.79,-0.47,0.46,-1.11,0.75,3.54
0.78,-0.47,0.44,-2.37,-1.48,3.48
0.77,-0.48,0.45,-2.38,-2.49,3.31
0.77,-0.48,0.47,-2.87,-1.89,3.62
0.78,-0.48,0.46,-3.47,-0.90,3.51
0.78,-0.47,0.46,-2.76,-0.08,3.08
0.79,-0.47,0.46,-2.41,-0.40,3.19
0.78,-0.47,0.47,-2.89,0.06,3.16
0.78,-0.47,0.47,-2.89,-0.17,2.76
0.79,-0.47,0.45,-2.43,-0.26,2.24
0.79,-0.46,0.46,-2.49,-0.99,2.64
0.79,-0.46,0.47,-2.56,-0.12,2.85
0.80,-0.46,0.45,-2.32,0.12,2.11
0.79,-0.46,0.45,-1.89,0.15,1.59
0.79,-0.46,0.47,-2.11,-0.18,1.11
0.79,-0.47,0.47,-2.27,-0.29,1.07
0.79,-0.47,0.47,-1.30,-0.55,0.95
0.80,-0.47,0.45,-1.15,-1.15,0.61
0.81,-0.45,0.45,-2.12,-1.36,0.75
0.79,-0.46,0.45,-2.02,-2.47,0.05
0.78,-0.46,0.46,-1.56,-0.96,0.05
0.79,-0.46,0.46,-0.89,-0.76,-0.08
0.79,-0.46,0.46,-1.16,-1.10,-0.03
0.79,-0.46,0.46,-2.14,-1.28,-0.09
0.78,-0.45,0.46,-1.95,-0.99,-0.31
0.79,-0.47,0.46,-1.01,0.15,-0.34
0.78,-0.47,0.44,-0.60,0.58,-0.37
0.78,-0.47,0.45,-1.60,0.17,-0.03
0.78,-0.47,0.46,-3.25,-0.20,0.70
0.78,-0.46,0.45,-4.11,0.09,1.02
0.79,-0.46,0.46,-3.69,0.35,0.98
0.78,-0.47,0.45,-2.58,0.98,1.27
0.78,-0.46,0.46,-1.91,1.30,1.40
0.78,-0.46,0.46,-2.09,0.69,1.54
0.80,-0.46,0.46,-2.49,0.70,1.53
0.79,-0.46,0.46,-2.90,0.38,1.28
0.79,-0.47,0.45,-2.20,0.12,1.47
0.79,-0.46,0.46,-2.17,0.37,1.50
0.79,-0.46,0.47,-2.02,0.14,1.27
0.79,-0.46,0.46,-1.82,0.50,1.13
0.79,-0.46,0.47,-1.68,0.37,1.31
0.79,-0.47,0.46,-1.74,0.15,0.85
0.79,-0.47,0.45,-1.95,0.09,1.22
0.78,-0.46,0.47,-1.88,0.08,1.50
0.79,-0.46,0.46,-2.31,0.20,1.22
0.79,-0.46,0.45,-2.12,0.26,1.01
0.78,-0.47,0.46,-1.95,0.15,0.98
0.78,-0.48,0.46,-1.97,-0.12,1.13
0.79,-0.47,0.45,-2.27,-0.90,1.01
0.79,-0.46,0.46,-2.61,-0.75,1.04
0.79,-0.47,0.46,-2.38,-0.37,1.08
0.78,-0.46,0.47,-2.52,-0.31,1.28
0.79,-0.46,0.46,-2.41,0.15,0.93
0.79,-0.46,0.44,-2.17,-0.15,0.52
0.78,-0.47,0.46,-2.08,-0.31,0.96
0.78,-0.47,0.46,-2.18,-0.26,1.54
0.78,-0.47,0.46,-2.41,-0.05,1.50
0.78,-0.47,0.45,-2.43,-0.09,1.44
0.79,-0.47,0.45,-2.66,0.00,1.53
0.79,-0.47,0.45,-2.87,-0.24,1.79
0.78,-0.47,0.46,-2.56,-0.34,1.68
0.79,-0.46,0.46,-2.82,-0.55,1.65
0.78,-0.46,0.46,-2.81,-0.56,1.44
0.79,-0.46,0.47,-2.58,-0.64,1.45
0.79,-0.46,0.45,-2.95,-1.85,1.86
0.80,-0.46,0.44,-3.47,-2.55,2.35
0.80,-0.46,0.45,-2.32,-3.21,1.74
0.78,-0.45,0.47,-2.55,-2.12,1.30
0.77,-0.46,0.47,-1.53,-0.53,0.40
0.79,-0.46,0.47,0.09,0.82,-0.09
0.79,-0.47,0.48,0.87,0.92,-0.56
0.79,-0.47,0.45,-0.72,-0.23,-0.43
0.78,-0.49,0.43,-1.89,-1.25,0.38
0.77,-0.49,0.44,-2.46,-0.26,1.01
0.77,-0.48,0.45,-2.43,0.32,0.84
0.77,-0.47,0.46,-2.21,0.06,0.50
0.78,-0.47,0.46,-2.08,0.03,0.66
0.78,-0.47,0.46,-2.37,0.09,0.78
0.79,-0.46,0.46,-2.40,0.32,0.47
0.79,-0.47,0.46,-2.32,0.49,0.26
0.79,-0.46,0.45,-1.85,0.14,0.00
0.79,-0.46,0.46,-2.47,-0.14,0.40
0.78,-0.47,0.45,-3.01,-0.82,0.73
0.79,-0.46,0.45,-2.32,-1.30,0.31
0.79,-0.46,0.47,-1.56,-1.01,-0.03
0.78,-0.46,0.48,-0.96,-0.24,0.12
0.78,-0.47,0.47,-1.27,0.82,-0.35
0.80,-0.47,0.46,0.56,0.75,-0.52
0.81,-0.47,0.44,-1.08,-1.19,0.08
0.79,-0.46,0.46,-1.37,-2.53,0.27
0.78,-0.47,0.45,-2.46,-2.03,0.11
0.78,-0.46,0.46,-0.93,-0.15,-0.20
0.79,-0.46,0.47,-0.35,0.53,-0.44
0.80,-0.46,0.45,-1.22,0.34,-0.72
0.78,-0.47,0.45,-2.73,-0.63,-0.38
0.78,-0.47,0.44,-2.32,-0.56,-0.55
0.78,-0.47,0.45,-1.56,-0.26,-0.47
0.78,-0.47,0.45,-1.73,0.66,-0.17
0.78,-0.48,0.46,-2.44,0.70,0.53
0.78,-0.47,0.45,-3.34,0.20,1.28
0.78,-0.46,0.47,-3.48,-0.03,1.22
0.78,-0.47,0.46,-2.44,0.20,0.69
0.78,-0.47,0.45,-1.24,0.40,0.47
0.79,-0.47,0.46,-0.61,0.11,0.41
0.78,-0.47,0.46,-1.15,-0.17,0.20
0.78,-0.47,0.46,-1.68,-0.24,0.49
0.79,-0.47,0.46,-1.68,-0.32,0.26
0.79,-0.46,0.45,-0.89,-0.06,-0.76
0.79,-0.46,0.46,-0.70,-0.44,-0.92
0.79,-0.46,0.46,-0.95,-0.14,-1.22
0.79,-0.46,0.46,-1.40,-0.38,-1.50
0.79,-0.47,0.46,-1.79,0.15,-1.76
0.78,-0.47,0.46,-1.62,0.34,-1.91
0.78,-0.47,0.45,-1.33,0.12,-1.65
0.78,-0.47,0.46,-1.39,-0.18,-1.31
0.78,-0.47,0.47,-1.65,-0.27,-0.89
0.78,-0.47,0.46,-1.59,-0.32,-0.69
0.78,-0.47,0.46,-1.37,-0.27,-0.63
0.78,-0.46,0.46,-0.60,0.09,-0.81
0.78,-0.46,0.45,-0.52,-0.27,-0.92
0.79,-0.46,0.46,-0.81,-0.34,-1.15
0.79,-0.46,0.47,-1.31,0.26,-1.18
0.79,-0.45,0.46,-1.50,0.31,-1.77
0.79,-0.46,0.47,-0.89,0.00,-1.79
0.79,-0.46,0.46,-0.53,0.38,-2.20
0.78,-0.46,0.46,-0.47,0.61,-2.12
0.79,-0.46,0.47,-0.96,0.85,-1.98
0.79,-0.47,0.48,-1.31,0.85,-1.66
0.79,-0.46,0.46,-1.60,1.57,-1.19
0.79,-0.46,0.46,-1.21,0.82,-1.28
0.79,-0.47,0.47,-1.34,0.09,-1.13
0.79,-0.46,0.45,-1.60,-0.40,-1.08
0.79,-0.45,0.45,-1.98,-0.21,-0.82
0.80,-0.45,0.46,-2.41,-0.37,-0.92
0.80,-0.45,0.47,-2.18,0.26,-1.05
0.80,-0.45,0.47,-1.19,0.96,-1.54
0.79,-0.45,0.45,-0.47,-0.78,-1.34
0.80,-0.45,0.43,-2.02,-2.37,-0.69
0.80,-0.45,0.44,-1.69,-3.53,-0.31
0.78,-0.45,0.47,-0.89,-2.79,-0.44
0.77,-0.45,0.47,-0.12,0.35,-0.92
0.78,-0.45,0.47,1.11,0.92,-1.57
0.79,-0.47,0.46,1.24,0.95,-1.86
0.79,-0.47,0.45,-0.23,0.06,-1.33
0.79,-0.48,0.45,-1.30,-0.67,-0.34
0.79,-0.47,0.44,-1.92,-0.32,0.03
0.79,-0.46,0.45,-2.35,0.73,-0.35
0.79,-0.46,0.45,-2.72,0.79,-0.69
0.80,-0.46,0.46,-3.47,0.34,-0.69
0.79,-0.45,0.46,-3.68,-0.37,-0.96
0.78,-0.45,0.46,-2.79,-0.05,-1.16
0.79,-0.45,0.47,-2.15,-0.15,-1.30
0.79,-0.45,0.48,-1.97,0.03,-1.07
0.79,-0.46,0.46,-2.09,0.63,-0.46
0.79,-0.46,0.46,-1.82,-0.63,0.24
0.79,-0.45,0.46,-1.82,-1.39,0.55
0.80,-0.45,0.47,-1.45,-1.91,0.50
0.79,-0.44,0.46,-1.01,-1.25,0.06
0.80,-0.44,0.46,-0.12,0.27,-0.44
0.81,-0.45,0.46,-0.15,-0.85,-0.43
0.81,-0.46,0.44,-0.95,-2.84,-0.06
0.78,-0.45,0.45,-2.69,-5.83,-0.50
0.78,-0.46,0.48,-2.60,-3.07,-0.37
0.79,-0.45,0.47,-0.93,-1.59,-0.90
0.80,-0.45,0.47,-0.40,-0.12,-1.25
0.79,-0.45,0.46,-1.57,-1.40,-0.93
0.79,-0.46,0.45,-2.15,-2.06,-0.32
0.78,-0.45,0.44,-2.44,-1.91,-0.14
0.79,-0.45,0.45,-2.37,-1.79,-0.53
0.79,-0.45,0.46,-3.02,-0.99,-0.49
0.79,-0.45,0.45,-2.60,-0.44,-0.18
0.79,-0.45,0.46,-2.56,-0.56,-0.15
0.80,-0.45,0.47,-2.08,-0.20,-0.40
0.79,-0.46,0.46,-1.54,-0.47,-0.58
0.80,-0.45,0.46,-1.50,-0.15,-0.35
0.80,-0.45,0.46,-1.71,-0.44,-0.21
0.80,-0.45,0.46,-1.74,-0.38,-0.24
0.80,-0.45,0.45,-1.42,-0.87,-0.27
0.79,-0.46,0.46,-1.10,-0.43,-0.53
0.80,-0.45,0.45,-1.11,-0.95,-0.38
0.80,-0.45,0.45,-1.07,-1.36,-0.63
0.80,-0.45,0.46,-2.03,-1.19,-0.64
0.79,-0.46,0.46,-2.35,-0.21,-0.49
0.80,-0.45,0.45,-2.20,0.11,-0.73
0.80,-0.44,0.46,-1.53,-0.05,-1.01
0.80,-0.45,0.46,-1.51,-0.17,-1.19
0.80,-0.45,0.46,-1.77,-0.29,-1.36
0.80,-0.45,0.46,-2.02,-0.35,-1.11
0.79,-0.45,0.45,-2.03,0.00,-0.67
0.80,-0.45,0.46,-2.09,0.24,-0.46
0.80,-0.45,0.45,-1.54,-0.11,-0.60
0.79,-0.44,0.45,-1.33,-0.38,-0.24
0.80,-0.44,0.45,-0.93,-0.61,-0.37
0.80,-0.45,0.46,-1.01,-0.23,-0.40
0.80,-0.45,0.46,-0.79,-0.15,-0.43
0.80,-0.45,0.46,-1.19,0.21,-0.69
0.79,-0.45,0.45,-1.21,-0.35,-0.87
0.80,-0.45,0.45,-1.42,-0.41,-1.02
0.80,-0.45,0.45,-2.06,-0.44,-1.25
0.80,-0.46,0.45,-2.00,0.29,-0.95
0.80,-0.46,0.45,-1.98,0.08,-0.61
0.80,-0.45,0.46,-2.50,-0.24,-0.63
0.80,-0.45,0.45,-2.49,0.00,-0.82
0.81,-0.45,0.46,-1.50,-0.15,-1.05
0.81,-0.44,0.44,-1.83,-1.51,-0.61
0.81,-0.44,0.44,-2.75,-2.72,0.34
0.80,-0.44,0.46,-1.82,-3.69,0.18
0.79,-0.44,0.47,-1.36,-2.14,-0.37
0.79,-0.43,0.47,-0.02,0.21,-1.54
0.80,-0.45,0.46,1.19,1.42,-2.24
0.80,-0.45,0.46,0.82,0.73,-2.20
0.80,-0.46,0.45,-1.01,-0.90,-1.25
0.79,-0.46,0.45,-1.62,-1.34,-0.56
0.79,-0.46,0.44,-1.57,0.03,-0.44
0.79,-0.45,0.46,-1.65,1.51,-0.64
0.79,-0.46,0.46,-2.40,1.66,-0.21
0.79,-0.45,0.45,-2.34,0.69,-0.47
0.80,-0.44,0.46,-2.09,0.12,-0.46
0.80,-0.44,0.45,-2.32,0.08,-0.84
0.80,-0.44,0.46,-2.49,0.81,-0.61
0.80,-0.44,0.46,-2.27,1.36,-0.85
0.80,-0.44,0.46,-2.18,0.96,-0.50
0.80,-0.44,0.46,-2.26,0.21,-0.23
0.80,-0.44,0.46,-1.82,-0.05,-0.12
0.80,-0.44,0.46,-1.10,-0.11,0.11
0.79,-0.44,0.47,-0.89,0.63,0.18
0.81,-0.44,0.46,-0.24,1.95,0.12
0.81,-0.45,0.45,0.23,0.63,0.08
0.81,-0.45,0.43,-1.02,-0.53,0.63
0.80,-0.44,0.45,-2.12,-3.02,0.66
0.80,-0.44,0.46,-2.35,-0.90,0.70
0.80,-0.44,0.46,-0.67,0.93,-0.35
0.81,-0.44,0.46,-0.11,0.89,-0.64
0.80,-0.44,0.46,-1.63,-0.44,-0.64
0.79,-0.45,0.46,-2.55,-0.85,-0.15
0.80,-0.44,0.45,-2.18,-0.37,-0.18
0.80,-0.44,0.46,-1.71,0.08,-0.38
0.79,-0.45,0.45,-1.83,0.85,0.05
0.79,-0.45,0.47,-1.85,0.89,0.50
0.80,-0.44,0.46,-2.27,0.47,0.92
0.79,-0.44,0.46,-2.53,0.66,0.79
0.80,-0.44,0.46,-2.46,1.04,0.70
0.80,-0.44,0.46,-1.97,0.79,0.38
0.80,-0.45,0.46,-1.51,0.87,0.24
0.80,-0.44,0.45,-1.57,0.52,0.05
0.79,-0.44,0.45,-1.48,0.23,0.17
0.80,-0.45,0.46,-1.54,0.26,0.21
0.79,-0.45,0.47,-1.63,0.61,0.23
0.80,-0.44,0.46,-1.42,0.31,0.11
0.80,-0.44,0.46,-1.62,0.20,0.44
0.80,-0.44,0.47,-1.47,-0.14,0.34
0.80,-0.44,0.47,-1.51,0.29,0.26
0.81,-0.44,0.46,-1.59,0.37,0.02
0.80,-0.44,0.47,-1.62,0.34,-0.17
0.80,-0.44,0.46,-1.45,0.17,-0.05
