accel_x,accel_y,accel_z,gyro_x,gyro_y,gyro_z
0.37,-0.56,0.80,-3.21,-1.62,0.37
0.37,-0.56,0.80,-2.70,-0.85,0.43
0.38,-0.56,0.80,-1.31,-0.06,0.46
0.37,-0.57,0.80,-1.31,-0.27,0.64
0.37,-0.57,0.80,-2.29,-0.79,0.58
0.37,-0.56,0.80,-3.22,-1.01,0.85
0.37,-0.57,0.80,-3.30,-0.53,0.82
0.38,-0.57,0.79,-3.07,-0.26,1.34
0.37,-0.56,0.79,-3.50,-0.72,1.10
0.37,-0.56,0.80,-3.33,-0.98,0.87
0.38,-0.57,0.81,-2.98,-0.50,1.04
0.38,-0.56,0.80,-2.53,-0.37,0.69
0.38,-0.57,0.80,-2.50,-0.50,0.89
0.38,-0.57,0.79,-2.44,-1.01,0.92
0.38,-0.57,0.81,-2.78,-1.25,0.87
0.37,-0.57,0.79,-2.58,-1.04,0.67
0.38,-0.57,0.80,-2.08,-0.67,0.64
0.37,-0.57,0.80,-2.20,-0.41,0.98
0.37,-0.57,0.81,-1.82,-0.31,1.10
0.37,-0.57,0.80,-1.83,-0.29,0.90
0.38,-0.57,0.80,-2.17,-0.40,0.76
0.38,-0.57,0.79,-2.44,-1.33,1.08
0.37,-0.57,0.80,-2.73,-2.99,1.07
0.38,-0.57,0.78,-2.70,-3.60,0.64
0.39,-0.57,0.80,-2.84,-3.71,0.43
0.38,-0.57,0.80,-2.99,-2.34,-0.02
0.37,-0.56,0.79,-2.73,-1.31,0.03
0.37,-0.57,0.80,-2.14,-2.23,-0.06
0.37,-0.57,0.81,-1.95,-2.17,0.11
0.37,-0.57,0.80,-1.97,-0.96,-0.26
0.37,-0.57,0.79,-1.28,-0.09,-0.02
0.38,-0.57,0.79,-1.07,-0.89,0.21
0.38,-0.57,0.79,-1.34,-1.15,-0.20
0.38,-0.57,0.79,-1.40,-2.00,0.31
0.37,-0.57,0.79,-1.94,-2.60,0.70
0.37,-0.57,0.80,-1.88,-1.82,0.31
0.37,-0.57,0.80,-1.94,-0.52,0.34
0.38,-0.57,0.79,-1.92,-0.49,0.29
0.38,-0.56,0.80,-2.27,-0.89,0.09
0.38,-0.57,0.79,-2.50,-0.79,0.12
0.38,-0.57,0.80,-2.21,-0.47,0.23
0.38,-0.57,0.79,-2.17,-0.64,0.34
0.39,-0.57,0.79,-2.29,-0.64,0.69
0.38,-0.56,0.81,-1.91,-0.85,0.32
0.38,-0.57,0.79,-2.29,0.06,0.38
0.38,-0.57,0.79,-1.59,0.58,0.75
0.39,-0.57,0.79,-0.31,0.32,0.76
0.39,-0.58,0.78,0.99,-1.05,1.37
0.39,-0.58,0.79,1.18,-1.85,1.68
0.37,-0.56,0.79,-1.01,-0.81,2.00
0.37,-0.56,0.81,-1.51,-1.07,0.73
0.38,-0.57,0.80,-0.24,-0.34,0.52
0.38,-0.57,0.80,-0.32,0.53,0.85
0.38,-0.58,0.79,-1.68,0.87,1.25
0.37,-0.57,0.79,-1.92,0.63,1.07
0.37,-0.57,0.80,-2.52,1.25,1.16
0.36,-0.57,0.79,-3.18,1.51,0.99
0.37,-0.57,0.80,-3.13,1.47,0.53
0.37,-0.57,0.78,-3.30,1.04,0.96
0.38,-0.57,0.81,-3.39,-0.14,1.27
0.38,-0.56,0.81,-3.48,0.49,1.16
0.38,-0.56,0.81,-2.64,1.21,0.55
0.38,-0.57,0.79,-1.94,1.10,0.49
0.38,-0.56,0.80,-1.45,0.63,1.04
0.38,-0.57,0.80,-1.30,0.18,0.98
0.39,-0.57,0.80,-1.31,0.24,0.82
0.38,-0.57,0.80,-1.60,0.27,0.90
0.38,-0.57,0.81,-2.06,0.27,0.38
0.38,-0.56,0.80,-1.60,0.93,-0.03
0.38,-0.58,0.80,-0.46,1.13,0.11
0.38,-0.58,0.80,-0.15,-0.11,0.81
0.39,-0.57,0.79,-1.24,-1.30,0.96
0.36,-0.57,0.79,-3.36,0.18,0.96
0.38,-0.57,0.80,-1.95,-0.27,0.35
0.38,-0.57,0.80,-0.85,-0.05,0.52
0.39,-0.56,0.82,-1.62,-0.60,0.02
0.38,-0.57,0.79,-1.76,-0.34,0.41
0.37,-0.57,0.79,-0.84,0.55,0.55
0.37,-0.57,0.79,-0.43,1.18,0.43
0.37,-0.57,0.80,-0.99,0.81,0.44
0.37,-0.57,0.79,-2.23,0.47,0.34
0.37,-0.57,0.79,-2.89,0.21,0.87
0.37,-0.56,0.80,-3.08,0.23,0.84
0.38,-0.57,0.80,-2.81,0.67,0.78
0.37,-0.57,0.80,-2.69,1.16,0.76
0.38,-0.57,0.79,-2.50,1.01,0.78
0.38,-0.58,0.80,-2.17,0.90,0.61
0.38,-0.57,0.79,-1.82,0.63,0.53
0.38,-0.57,0.80,-2.12,0.20,0.93
0.38,-0.57,0.80,-2.06,-0.09,0.64
0.38,-0.57,0.80,-1.88,-0.15,0.95
0.38,-0.57,0.80,-1.50,-0.03,0.93
0.38,-0.58,0.80,-1.42,0.02,0.96
0.37,-0.58,0.80,-1.33,0.31,0.67
0.38,-0.58,0.79,-1.25,0.38,0.53
0.37,-0.57,0.80,-1.36,0.35,0.52
0.38,-0.57,0.80,-1.47,0.34,0.34
0.37,-0.57,0.80,-1.83,0.23,0.06
0.38,-0.57,0.80,-1.92,-0.03,0.02
0.38,-0.57,0.80,-2.40,0.11,0.08
0.37,-0.57,0.79,-2.26,-0.09,0.17
0.38,-0.57,0.80,-2.40,-0.53,0.12
0.37,-0.57,0.81,-2.09,-0.27,0.23
0.38,-0.57,0.80,-1.97,0.08,0.31
0.38,-0.57,0.81,-1.27,0.12,0.23
0.37,-0.57,0.80,-1.07,0.31,0.41
0.37,-0.57,0.80,-1.02,0.26,0.38
0.38,-0.58,0.80,-1.39,0.05,0.31
0.38,-0.57,0.80,-1.74,-0.05,0.41
0.37,-0.56,0.80,-1.88,0.27,-0.03
0.37,-0.57,0.79,-1.50,0.09,-0.23
0.37,-0.57,0.79,-1.47,0.11,0.02
0.38,-0.57,0.80,-1.63,0.15,-0.08
0.38,-0.57,0.79,-1.69,0.37,0.18
0.38,-0.57,0.80,-2.40,-0.15,0.18
0.38,-0.57,0.80,-2.79,-0.69,0.09
0.37,-0.57,0.81,-2.56,-0.26,0.14
0.38,-0.57,0.80,-2.05,0.41,0.21
0.38,-0.57,0.79,-1.71,0.18,0.41
0.38,-0.56,0.80,-1.98,-0.53,0.81
0.37,-0.56,0.80,-2.09,-0.64,0.35
0.37,-0.57,0.80,-1.86,0.29,0.38
0.39,-0.57,0.79,-0.90,0.46,1.01
0.38,-0.58,0.79,0.29,-0.29,1.22
0.40,-0.57,0.79,0.81,-2.95,1.97
0.37,-0.56,0.80,-0.03,-3.04,2.69
0.36,-0.56,0.81,-1.98,-1.59,1.53
0.37,-0.56,0.81,0.50,-0.60,0.09
0.38,-0.57,0.80,2.03,0.56,0.40
0.37,-0.58,0.79,0.61,1.25,0.78
0.37,-0.58,0.79,-1.11,0.87,0.93
0.37,-0.57,0.79,-1.40,0.46,0.66
0.36,-0.57,0.80,-2.35,0.23,0.75
0.36,-0.56,0.80,-3.37,0.18,0.43
0.36,-0.57,0.81,-3.50,-0.06,0.09
0.37,-0.56,0.81,-2.72,1.36,0.23
0.38,-0.57,0.80,-1.73,2.63,0.32
0.37,-0.57,0.79,-1.31,2.60,0.50
0.38,-0.56,0.80,-2.05,1.02,0.32
0.37,-0.57,0.79,-2.08,0.27,0.40
0.38,-0.57,0.80,-1.68,-0.11,0.63
0.39,-0.56,0.80,-1.33,-0.12,0.76
0.38,-0.56,0.79,-1.50,-0.15,0.96
0.38,-0.57,0.79,-1.37,-0.18,0.87
0.37,-0.56,0.80,-0.73,-0.18,0.89
0.37,-0.57,0.79,-0.89,-0.52,0.92
0.37,-0.57,0.79,-1.21,-0.63,1.15
0.38,-0.57,0.80,-1.19,-0.53,1.60
0.38,-0.58,0.80,-0.92,-2.46,1.95
0.37,-0.57,0.79,-3.05,-1.82,2.35
0.36,-0.57,0.80,-4.69,-1.37,2.41
0.37,-0.56,0.80,-2.70,-0.60,1.82
0.37,-0.57,0.79,-1.91,-0.49,2.08
0.38,-0.55,0.79,-3.57,0.34,2.70
0.40,-0.54,0.77,-4.92,4.24,4.03
0.37,-0.54,0.74,-5.88,8.02,4.75
0.33,-0.57,0.75,-6.82,9.66,8.14
0.28,-0.60,0.74,-6.00,7.51,19.45
0.21,-0.61,0.76,-6.27,4.35,34.08
0.21,-0.58,0.75,-9.50,0.11,47.34
0.32,-0.58,0.83,-10.09,1.48,52.35
0.33,-0.57,0.80,-8.92,5.07,54.34
0.30,-0.59,0.74,-14.52,5.94,61.40
0.32,-0.59,0.73,-23.40,2.58,66.26
0.35,-0.58,0.76,-27.36,-4.32,65.73
0.36,-0.60,0.79,-29.37,-5.21,63.66
0.40,-0.62,0.86,-30.96,-1.07,54.05
0.40,-0.65,0.81,-23.97,-0.44,40.09
0.39,-0.68,0.83,-18.47,-1.66,27.47
0.40,-0.65,0.83,-18.27,-0.66,14.81
0.43,-0.62,0.82,-17.83,1.02,0.15
0.34,-0.64,0.77,-15.66,1.60,-4.73
0.30,-0.66,0.78,-15.33,-0.89,-5.05
0.31,-0.66,0.79,-14.61,-0.76,-8.79
0.34,-0.65,0.79,-12.43,3.30,-16.50
0.35,-0.65,0.78,-10.75,6.09,-22.95
0.37,-0.64,0.83,-10.32,5.89,-29.66
0.40,-0.63,0.84,-6.73,6.87,-38.55
0.36,-0.63,0.80,-1.37,5.47,-41.15
0.30,-0.62,0.78,0.32,1.97,-35.95
0.25,-0.63,0.78,1.16,-2.93,-27.18
0.27,-0.62,0.80,4.32,-1.51,-21.71
0.29,-0.63,0.79,7.59,6.00,-20.40
0.29,-0.64,0.76,8.27,9.13,-19.30
0.32,-0.64,0.76,7.94,5.37,-18.18
0.33,-0.62,0.75,6.38,3.19,-15.95
0.31,-0.61,0.76,4.58,1.11,-11.59
0.32,-0.62,0.76,2.34,2.40,-10.27
0.33,-0.61,0.80,2.05,3.63,-9.54
0.34,-0.61,0.81,4.35,4.82,-9.92
0.33,-0.62,0.81,6.09,4.06,-8.98
0.33,-0.62,0.79,5.60,1.47,-8.21
0.33,-0.62,0.78,4.49,-0.82,-7.07
0.32,-0.62,0.81,6.92,-3.25,-5.57
0.31,-0.62,0.78,9.21,-1.88,-2.67
0.31,-0.60,0.75,7.40,0.18,-0.18
0.35,-0.59,0.73,2.69,3.66,0.84
0.36,-0.60,0.75,0.06,3.47,-0.99
0.33,-0.61,0.78,-1.16,1.18,0.38
0.32,-0.60,0.77,-2.08,3.02,2.81
0.34,-0.59,0.75,-2.23,9.77,6.66
0.31,-0.59,0.73,-2.73,14.99,13.60
0.26,-0.62,0.75,-4.85,14.21,23.65
0.21,-0.62,0.76,-9.22,11.85,37.89
0.18,-0.61,0.72,-13.73,6.73,49.95
0.24,-0.62,0.74,-18.53,-0.60,57.37
0.30,-0.64,0.77,-18.63,-5.37,58.14
0.31,-0.62,0.81,-20.00,-4.52,53.66
0.40,-0.61,0.88,-20.24,-4.20,39.44
0.48,-0.63,0.91,-9.71,-2.20,18.23
0.44,-0.65,0.87,0.08,-0.79,6.20
0.42,-0.64,0.85,4.11,-0.90,-4.75
0.39,-0.62,0.85,8.58,-2.46,-15.02
0.38,-0.64,0.84,14.64,-1.65,-27.13
0.38,-0.63,0.86,19.39,-9.10,-38.61
0.30,-0.65,0.84,22.31,-20.55,-47.08
0.24,-0.68,0.80,27.21,-28.24,-48.46
0.22,-0.68,0.80,30.99,-26.52,-42.96
0.28,-0.65,0.79,31.56,-16.84,-33.07
0.36,-0.56,0.78,30.08,-4.79,-24.78
0.41,-0.52,0.75,28.49,1.42,-24.96
0.39,-0.53,0.71,22.26,-2.37,-25.39
0.35,-0.57,0.73,14.38,-10.82,-24.79
0.33,-0.59,0.75,10.90,-16.40,-20.44
0.33,-0.59,0.78,9.18,-11.88,-17.07
0.33,-0.57,0.78,9.63,-5.50,-13.79
0.34,-0.55,0.79,8.06,-2.03,-13.18
0.33,-0.55,0.77,6.43,-4.08,-11.53
0.33,-0.55,0.76,4.08,-6.70,-9.42
0.34,-0.58,0.77,1.31,-8.05,-6.79
0.34,-0.58,0.79,-1.18,-7.01,-3.37
0.35,-0.57,0.80,-2.93,-1.56,-1.80
0.35,-0.56,0.81,-2.44,1.65,-1.33
0.36,-0.55,0.82,-2.03,3.88,-1.66
0.39,-0.56,0.80,-0.09,3.83,-2.90
0.38,-0.56,0.78,0.95,1.89,-3.22
0.37,-0.56,0.79,0.32,1.16,-2.11
0.35,-0.56,0.80,-0.63,1.83,-0.46
0.33,-0.57,0.79,-1.05,1.88,1.47
0.33,-0.58,0.78,-1.73,2.11,3.86
0.33,-0.57,0.78,-4.06,2.17,6.09
0.34,-0.57,0.79,-6.32,2.20,7.79
0.35,-0.55,0.78,-8.29,3.19,9.45
0.35,-0.54,0.76,-11.77,4.15,11.57
0.33,-0.55,0.74,-14.84,6.81,15.98
0.33,-0.57,0.73,-16.87,11.65,23.01
0.30,-0.58,0.76,-18.08,12.85,32.37
0.27,-0.61,0.76,-20.61,12.00,42.78
0.27,-0.63,0.77,-23.24,9.94,48.26
0.28,-0.61,0.78,-27.04,5.51,49.63
0.33,-0.60,0.78,-30.43,1.48,46.35
0.37,-0.60,0.82,-31.47,-1.47,40.20
0.36,-0.62,0.83,-29.71,-3.04,35.13
0.36,-0.60,0.82,-26.95,-2.95,31.18
0.37,-0.61,0.81,-23.18,-1.59,26.40
0.40,-0.61,0.80,-20.72,1.19,19.80
0.40,-0.61,0.80,-18.56,2.41,11.47
0.39,-0.62,0.82,-18.03,0.99,2.76
0.36,-0.64,0.84,-16.76,-1.33,-1.86
0.36,-0.65,0.83,-13.44,-0.90,-6.84
0.37,-0.63,0.79,-10.92,2.32,-11.60
0.34,-0.63,0.80,-9.15,2.93,-14.55
0.33,-0.64,0.79,-5.85,1.91,-14.81
0.28,-0.64,0.83,-0.23,-1.91,-11.13
0.28,-0.66,0.82,4.72,-1.89,-7.39
0.29,-0.64,0.79,6.26,-0.44,-7.02
0.31,-0.64,0.78,6.78,0.79,-8.09
0.31,-0.64,0.76,6.93,0.66,-7.95
0.32,-0.64,0.76,6.27,-1.66,-7.88
0.32,-0.64,0.78,6.96,-2.49,-9.10
0.34,-0.63,0.78,7.51,0.47,-10.29
0.33,-0.63,0.78,8.43,2.87,-10.85
0.33,-0.62,0.79,8.49,4.63,-11.94
0.33,-0.61,0.79,8.52,1.97,-12.61
0.33,-0.60,0.79,8.12,0.11,-13.47
0.32,-0.61,0.79,7.83,-1.25,-12.49
0.30,-0.61,0.79,7.33,-3.04,-10.44
0.31,-0.62,0.80,7.42,-3.25,-10.11
0.34,-0.62,0.81,9.34,-2.23,-11.04
0.34,-0.62,0.79,10.18,-1.01,-12.41
0.35,-0.62,0.78,8.78,-2.17,-13.92
0.37,-0.62,0.79,6.89,-1.95,-16.87
0.38,-0.60,0.78,8.63,-0.52,-18.99
0.36,-0.60,0.79,8.44,-0.73,-18.34
0.35,-0.59,0.77,8.78,-3.08,-17.40
0.35,-0.58,0.79,9.98,-3.91,-15.77
0.35,-0.59,0.82,8.50,-0.41,-16.82
0.33,-0.58,0.80,9.71,0.58,-17.34
0.33,-0.59,0.79,10.46,0.15,-16.44
0.34,-0.59,0.80,10.08,-1.54,-15.42
0.36,-0.59,0.79,8.92,-0.43,-15.27
0.35,-0.59,0.78,7.40,1.21,-14.63
0.35,-0.58,0.77,4.85,2.03,-13.36
0.33,-0.57,0.76,1.69,0.72,-10.67
0.32,-0.58,0.79,-1.22,-0.93,-8.72
0.34,-0.57,0.79,-1.57,-0.76,-7.97
0.35,-0.57,0.79,-0.66,0.61,-6.20
0.35,-0.56,0.78,-1.30,1.08,-4.21
0.36,-0.57,0.81,-2.27,0.35,-2.98
0.36,-0.56,0.80,-1.51,-1.24,-2.26
0.36,-0.57,0.81,-0.63,-0.89,-1.98
0.36,-0.57,0.80,0.18,-0.18,-1.39
0.36,-0.57,0.78,-0.20,-0.60,0.00
0.36,-0.57,0.79,-0.82,-1.21,1.04
0.37,-0.57,0.81,-0.76,-1.50,1.33
0.39,-0.58,0.81,0.56,-0.52,-0.52
0.38,-0.57,0.80,1.25,-0.17,-1.18
0.37,-0.57,0.80,0.93,-0.58,-0.29
0.37,-0.58,0.80,0.78,-2.17,-0.11
0.38,-0.58,0.80,0.78,-1.92,-0.72
0.36,-0.58,0.80,-0.75,1.04,-1.92
0.38,-0.56,0.80,-0.27,0.98,-2.66
0.36,-0.56,0.81,0.23,0.27,-2.55
0.36,-0.56,0.82,-0.15,-1.08,-3.36
0.35,-0.56,0.80,-0.58,-0.27,-2.87
0.35,-0.57,0.80,-0.20,1.57,-2.32
0.35,-0.57,0.79,-0.12,2.00,-1.18
0.34,-0.56,0.79,-1.53,1.10,0.05
0.35,-0.57,0.80,-3.01,0.17,0.63
0.36,-0.57,0.80,-3.40,-0.50,1.56
0.35,-0.57,0.80,-4.52,-0.29,2.76
0.36,-0.57,0.80,-5.19,-1.10,3.34
0.38,-0.58,0.82,-4.78,-1.85,2.56
0.38,-0.56,0.81,-3.21,-1.65,1.77
0.37,-0.57,0.81,-2.52,-1.54,1.71
0.38,-0.57,0.81,-2.29,-1.13,1.30
0.36,-0.56,0.81,-1.80,-1.19,1.13
0.36,-0.57,0.80,-1.33,-1.04,0.82
0.37,-0.57,0.81,-0.78,-1.10,0.73
0.37,-0.57,0.81,-1.40,-1.36,0.79
0.38,-0.58,0.80,-2.05,-1.88,0.64
0.38,-0.57,0.80,-1.74,-1.31,0.09
0.37,-0.57,0.80,-1.63,-1.37,-0.26
0.37,-0.57,0.80,-2.14,-1.47,-0.27
0.37,-0.57,0.81,-2.43,-2.12,-0.52
0.37,-0.57,0.81,-2.89,-1.88,-0.64
0.37,-0.57,0.80,-2.20,-0.84,-1.30
0.37,-0.56,0.80,-1.76,-0.72,-1.27
0.37,-0.57,0.80,-1.77,-1.01,-1.42
0.37,-0.56,0.80,-1.57,-1.66,-1.36
0.37,-0.56,0.81,-1.74,-2.14,-0.53
0.37,-0.56,0.81,-1.82,-1.74,-0.27
0.38,-0.57,0.80,-0.64,-1.02,-0.85
0.37,-0.57,0.79,-0.89,-0.63,-0.34
0.37,-0.57,0.80,-1.48,-1.01,0.17
0.37,-0.57,0.80,-1.97,-1.51,0.56
0.37,-0.57,0.79,-1.80,-1.34,0.84
0.37,-0.57,0.80,-1.76,-0.14,0.29
0.37,-0.57,0.80,-1.74,0.14,-0.26
0.37,-0.56,0.80,-2.17,-0.26,-0.21
0.36,-0.57,0.80,-2.32,-0.81,-0.31
0.37,-0.57,0.81,-1.91,-0.35,-0.93
0.37,-0.58,0.80,-1.39,0.87,-1.73
0.39,-0.58,0.81,-1.53,1.69,-2.56
0.37,-0.59,0.80,-1.56,0.85,-2.37
0.38,-0.59,0.81,-1.57,0.00,-2.69
0.39,-0.59,0.79,-1.18,0.09,-2.05
0.40,-0.58,0.79,-1.95,-0.06,-2.21
0.39,-0.57,0.79,-2.66,-0.52,-2.70
0.40,-0.57,0.81,-1.97,-1.01,-4.70
0.40,-0.56,0.80,-0.47,-0.26,-6.11
0.40,-0.56,0.80,1.42,0.58,-6.03
0.40,-0.56,0.80,2.89,0.73,-6.64
0.41,-0.55,0.79,6.05,0.06,-6.84
0.37,-0.54,0.80,7.30,0.98,-5.57
0.36,-0.54,0.81,6.09,2.64,-5.79
0.35,-0.56,0.81,8.89,3.22,-6.76
0.36,-0.56,0.80,11.04,4.43,-6.09
0.36,-0.56,0.79,10.18,5.04,-4.99
0.35,-0.56,0.79,8.85,5.36,-4.96
0.36,-0.55,0.79,8.02,5.59,-5.76
0.37,-0.56,0.81,7.73,5.97,-7.57
0.35,-0.53,0.80,5.79,4.24,-7.15
0.34,-0.53,0.81,3.19,3.62,-7.05
0.34,-0.53,0.81,3.21,3.82,-6.64
0.35,-0.53,0.82,4.76,5.36,-5.97
0.35,-0.52,0.82,6.09,5.53,-5.89
0.36,-0.51,0.82,6.73,4.08,-7.85
0.37,-0.50,0.83,5.16,3.76,-10.76
0.37,-0.47,0.86,5.01,-0.66,-14.24
0.39,-0.49,0.84,5.71,0.40,-19.22
0.40,-0.56,0.81,8.47,6.70,-24.58
0.41,-0.62,0.79,9.33,14.31,-26.38
0.41,-0.61,0.76,10.11,17.94,-26.70
0.40,-0.60,0.78,12.32,18.56,-27.57
0.39,-0.60,0.78,12.87,19.21,-26.55
0.39,-0.58,0.80,10.35,17.01,-24.50
0.37,-0.55,0.82,5.15,14.20,-22.06
0.35,-0.53,0.85,0.02,10.03,-20.02
0.36,-0.50,0.84,-2.08,4.98,-18.43
0.37,-0.50,0.86,-2.82,5.10,-16.14
0.39,-0.48,0.87,-2.95,6.58,-14.32
0.40,-0.47,0.87,-0.09,7.74,-13.05
0.41,-0.47,0.87,3.08,7.85,-12.67
0.39,-0.48,0.88,5.44,7.13,-11.66
0.39,-0.49,0.87,3.91,5.86,-10.21
0.38,-0.48,0.85,2.63,2.53,-9.07
0.38,-0.49,0.87,1.83,1.42,-6.66
0.38,-0.49,0.87,1.28,2.38,-5.45
0.39,-0.50,0.87,2.72,2.03,-5.31
0.40,-0.49,0.86,1.77,2.14,-4.53
0.40,-0.48,0.87,0.79,0.46,-3.56
0.38,-0.48,0.86,1.54,-1.66,-3.39
0.38,-0.47,0.86,1.42,-2.60,-2.87
0.39,-0.47,0.86,0.38,-2.18,-2.41
0.39,-0.46,0.86,0.20,-2.32,-2.43
0.39,-0.48,0.85,-0.02,-2.06,-2.37
0.39,-0.47,0.85,0.98,-2.87,-2.11
0.38,-0.47,0.85,1.01,-2.41,-1.24
0.39,-0.47,0.86,0.70,-2.32,-0.85
0.38,-0.47,0.86,-0.17,-3.05,-0.37
0.39,-0.47,0.85,-2.08,-4.41,0.56
0.40,-0.46,0.86,-2.66,-4.70,0.78
0.40,-0.46,0.86,-1.50,-5.53,0.32
0.39,-0.46,0.87,0.03,-4.95,0.46
0.40,-0.47,0.86,0.34,-2.75,0.66
0.39,-0.48,0.87,0.73,0.34,2.20
0.40,-0.47,0.85,0.96,-5.10,1.05
0.41,-0.49,0.85,-1.95,-3.98,1.71
0.40,-0.49,0.85,-5.33,-2.56,3.44
0.40,-0.50,0.85,-5.25,-4.12,3.68
0.41,-0.49,0.86,-5.62,-5.98,3.25
0.42,-0.49,0.85,-5.60,-5.50,3.40
0.42,-0.49,0.85,-5.56,-3.44,3.56
0.43,-0.49,0.85,-5.08,-2.84,2.72
0.43,-0.49,0.84,-5.36,-3.50,2.40
0.42,-0.49,0.84,-6.17,-4.72,2.26
0.42,-0.49,0.84,-6.55,-4.96,2.56
0.42,-0.49,0.85,-5.31,-4.40,2.40
0.40,-0.49,0.85,-4.17,-3.02,3.66
0.40,-0.50,0.84,-3.94,-2.34,4.18
0.40,-0.50,0.84,-4.03,-2.35,5.59
0.39,-0.48,0.84,-4.81,-3.54,6.60
0.41,-0.49,0.85,-4.32,-3.27,6.17
0.41,-0.50,0.83,-2.72,-2.55,7.07
0.41,-0.50,0.82,-1.45,-3.56,7.98
0.42,-0.51,0.84,-0.69,-4.24,8.06
0.39,-0.50,0.83,-2.06,-4.02,8.98
0.37,-0.49,0.82,-3.74,-4.31,9.62
0.38,-0.51,0.83,-3.86,-4.64,9.10
0.38,-0.52,0.84,-3.63,-3.24,8.84
0.37,-0.52,0.82,-4.18,-2.17,10.18
0.37,-0.52,0.80,-5.86,-2.35,10.79
0.37,-0.51,0.82,-6.95,-3.62,10.17
0.38,-0.52,0.82,-7.53,-4.56,9.89
0.39,-0.52,0.83,-7.15,-4.32,9.21
0.40,-0.51,0.82,-6.75,-4.15,8.35
0.40,-0.51,0.82,-6.58,-3.39,8.02
0.40,-0.52,0.82,-6.11,-3.02,7.97
0.40,-0.51,0.83,-6.02,-2.17,6.66
0.40,-0.52,0.82,-5.16,-2.26,6.21
0.38,-0.52,0.82,-5.02,-2.50,6.64
0.40,-0.53,0.83,-4.93,-2.60,6.69
0.40,-0.53,0.82,-4.03,-2.40,6.53
0.40,-0.52,0.82,-3.37,-2.60,6.27
0.40,-0.52,0.82,-4.02,-2.82,5.88
0.39,-0.52,0.83,-4.41,-2.84,5.50
0.39,-0.52,0.84,-3.54,-1.71,6.08
0.40,-0.53,0.82,-1.95,-1.47,6.32
0.39,-0.53,0.82,-1.16,-2.38,6.35
0.37,-0.53,0.83,-3.45,-1.80,6.85
0.39,-0.52,0.83,-3.94,-2.08,6.18
0.39,-0.53,0.81,-3.18,-2.05,6.60
0.39,-0.53,0.83,-3.39,-2.37,6.75
0.39,-0.53,0.82,-3.91,-1.86,6.76
0.38,-0.53,0.82,-4.29,-1.42,7.36
0.38,-0.53,0.82,-4.05,-1.83,7.07
0.38,-0.53,0.82,-4.05,-1.54,7.07
0.38,-0.54,0.81,-4.35,-1.69,7.22
0.38,-0.54,0.81,-5.21,-2.09,7.28
0.38,-0.53,0.81,-5.31,-2.18,7.27
0.40,-0.53,0.82,-4.76,-1.91,5.65
0.40,-0.53,0.82,-4.24,-1.65,4.72
0.38,-0.52,0.81,-4.55,-2.05,4.92
0.38,-0.53,0.83,-4.56,-2.46,4.90
0.38,-0.54,0.83,-3.94,-1.53,4.40
0.38,-0.54,0.82,-3.28,-0.58,3.85
0.38,-0.53,0.82,-3.25,-0.35,3.16
0.39,-0.53,0.82,-3.77,-0.79,2.64
0.40,-0.53,0.82,-3.95,-1.86,2.20
0.40,-0.52,0.83,-2.69,-1.91,1.94
0.40,-0.53,0.82,-1.56,-1.10,1.91
0.39,-0.54,0.82,-0.78,-0.52,2.53
0.37,-0.55,0.82,-0.23,0.50,3.04
0.36,-0.54,0.81,-0.47,1.04,4.34
0.36,-0.56,0.81,-1.54,0.90,5.37
0.37,-0.56,0.81,-3.44,-0.02,5.89
0.38,-0.55,0.82,-4.29,-0.76,5.62
