accel_x,accel_y,accel_z,gyro_x,gyro_y,gyro_z
0.21,-0.94,0.28,-2.34,-2.17,0.84
0.20,-0.94,0.28,-2.41,-0.95,0.78
0.21,-0.94,0.28,-2.38,-0.12,0.72
0.21,-0.94,0.28,-2.95,0.21,0.50
0.21,-0.94,0.27,-3.04,0.93,0.40
0.21,-0.95,0.29,-3.39,0.99,0.29
0.21,-0.95,0.27,-3.27,0.43,0.31
0.20,-0.94,0.28,-2.96,-0.47,-0.02
0.21,-0.94,0.28,-2.70,-0.35,0.00
0.22,-0.95,0.28,-2.90,0.49,-0.05
0.22,-0.94,0.28,-2.85,1.30,-0.52
0.22,-0.94,0.28,-3.07,0.87,0.05
0.22,-0.93,0.28,-3.50,0.89,0.61
0.22,-0.94,0.27,-3.80,1.36,0.72
0.22,-0.94,0.27,-3.31,1.85,0.70
0.23,-0.93,0.28,-2.12,1.50,0.75
0.23,-0.94,0.27,-1.25,-0.98,0.96
0.22,-0.94,0.27,-0.70,-4.06,1.37
0.22,-0.94,0.27,-1.33,-2.66,2.12
0.21,-0.93,0.28,-2.27,2.23,3.01
0.21,-0.94,0.28,-2.38,5.51,3.50
0.21,-0.94,0.27,-2.85,6.23,3.82
0.22,-0.95,0.28,-2.50,4.11,3.83
0.21,-0.95,0.29,-2.02,1.66,3.69
0.21,-0.95,0.28,-1.27,0.23,3.59
0.21,-0.95,0.28,-1.62,0.98,2.95
0.21,-0.96,0.28,-1.89,2.21,2.63
0.22,-0.95,0.29,-2.02,4.26,2.00
0.21,-0.95,0.29,-2.06,4.24,1.42
0.21,-0.95,0.28,-2.06,2.35,1.57
0.22,-0.95,0.29,-2.31,0.18,1.39
0.21,-0.95,0.29,-2.24,-0.73,1.33
0.20,-0.95,0.30,-2.82,-0.53,0.92
0.21,-0.96,0.28,-2.70,-0.29,0.85
0.20,-0.95,0.29,-2.56,0.18,0.67
0.20,-0.94,0.27,-2.23,0.24,0.46
0.20,-0.95,0.28,-1.88,-0.20,0.12
0.20,-0.95,0.29,-1.66,-0.64,0.15
0.20,-0.95,0.28,-2.32,-1.05,0.55
0.20,-0.95,0.28,-2.79,0.31,0.63
0.21,-0.96,0.27,-3.02,1.50,0.70
0.21,-0.95,0.28,-2.70,-1.04,0.79
0.21,-0.95,0.28,-2.81,-4.53,0.69
0.20,-0.95,0.28,-3.83,-3.77,1.07
0.20,-0.95,0.28,-4.27,-0.14,1.39
0.21,-0.94,0.29,-4.21,3.04,1.16
0.21,-0.94,0.28,-4.09,3.24,0.95
0.21,-0.94,0.28,-3.25,1.37,0.79
0.21,-0.94,0.27,-2.12,-1.51,0.67
0.21,-0.94,0.27,-1.13,-3.86,1.27
0.21,-0.94,0.28,-1.30,-4.79,1.79
0.21,-0.94,0.29,-2.21,-3.36,2.18
0.21,-0.94,0.29,-2.61,-1.71,2.18
0.20,-0.94,0.27,-2.73,-1.11,2.29
0.21,-0.95,0.28,-2.93,-1.79,2.61
0.20,-0.95,0.29,-2.64,-2.67,2.55
0.20,-0.96,0.28,-2.63,-3.33,1.80
0.20,-0.96,0.27,-2.40,-3.73,1.05
0.21,-0.96,0.28,-2.09,-3.91,0.73
0.19,-0.96,0.28,-1.73,-3.11,0.41
0.20,-0.96,0.28,-1.76,-2.72,0.00
0.20,-0.95,0.27,-1.59,-2.29,-0.38
0.20,-0.96,0.27,-1.68,-2.35,-0.31
0.20,-0.95,0.27,-1.86,-1.79,-0.43
0.21,-0.95,0.26,-2.55,-1.19,-0.73
0.20,-0.95,0.27,-2.40,-0.31,-0.15
0.20,-0.95,0.27,-2.21,0.95,-0.58
0.20,-0.95,0.27,-2.24,2.37,-0.93
0.20,-0.95,0.27,-2.00,3.10,-1.76
0.20,-0.95,0.27,-1.27,2.69,-1.54
0.20,-0.95,0.27,-1.05,1.39,-1.22
0.21,-0.95,0.27,-0.93,0.85,-1.18
0.20,-0.95,0.27,-1.27,0.89,-1.37
0.21,-0.94,0.28,-1.57,1.25,-1.10
0.20,-0.95,0.28,-1.31,1.95,-1.07
0.21,-0.94,0.28,-1.60,2.34,-0.87
0.20,-0.94,0.27,-1.86,2.95,-1.13
0.22,-0.94,0.27,-1.42,3.27,-1.07
0.22,-0.94,0.28,-1.22,3.25,-1.28
0.21,-0.94,0.28,-1.08,2.64,-1.18
0.21,-0.95,0.27,-0.73,2.02,-0.87
0.21,-0.95,0.28,-0.35,1.45,-1.25
0.22,-0.95,0.29,-0.29,1.47,-1.34
0.22,-0.95,0.27,-0.44,1.42,-1.94
0.21,-0.95,0.28,-0.08,0.98,-1.71
0.21,-0.95,0.28,-0.20,0.90,-1.50
0.20,-0.94,0.29,-0.52,0.85,-2.03
0.21,-0.95,0.28,-0.35,2.38,-2.40
0.21,-0.95,0.28,-1.22,2.92,-1.97
0.22,-0.95,0.28,-1.80,2.76,-2.09
0.21,-0.95,0.29,-1.63,2.78,-1.77
0.21,-0.95,0.28,-1.51,2.87,-2.12
0.22,-0.94,0.28,-1.51,2.90,-1.86
0.22,-0.95,0.29,-1.74,2.09,-2.09
0.23,-0.93,0.27,-1.77,1.94,-2.18
0.22,-0.94,0.28,-1.21,1.56,-2.24
0.22,-0.94,0.28,-0.95,1.86,-2.70
0.21,-0.94,0.28,-0.70,1.65,-2.69
0.21,-0.94,0.29,-0.58,1.92,-2.63
0.21,-0.94,0.28,-0.44,2.44,-2.72
0.21,-0.94,0.28,-0.44,2.63,-2.31
0.22,-0.95,0.28,-0.40,2.73,-2.69
0.22,-0.95,0.27,0.11,3.01,-3.08
0.22,-0.95,0.28,-0.14,3.11,-2.99
0.22,-0.94,0.28,-0.02,2.93,-2.72
0.22,-0.94,0.28,-0.37,3.73,-2.63
0.22,-0.94,0.27,-1.16,4.72,-2.92
0.22,-0.94,0.29,-1.28,5.68,-3.40
0.23,-0.94,0.28,-0.66,6.06,-3.63
0.22,-0.94,0.28,-0.21,6.21,-3.91
0.22,-0.94,0.28,0.08,6.58,-4.31
0.22,-0.95,0.29,0.84,6.21,-4.89
0.22,-0.94,0.28,1.47,3.24,-5.34
0.22,-0.94,0.29,2.08,-0.24,-5.24
0.21,-0.93,0.28,0.53,1.16,-5.25
0.21,-0.94,0.30,-0.27,6.14,-4.12
0.22,-0.95,0.30,-0.32,10.05,-3.28
0.23,-0.95,0.29,-1.47,10.18,-3.85
0.23,-0.95,0.31,-1.94,7.91,-4.24
0.23,-0.94,0.29,-1.16,5.34,-4.15
0.23,-0.95,0.29,-0.50,2.35,-4.24
0.23,-0.94,0.30,-0.66,1.31,-4.23
0.22,-0.94,0.30,-1.31,2.37,-4.50
0.23,-0.94,0.30,-1.59,3.83,-4.98
0.24,-0.94,0.30,-1.22,4.35,-4.34
0.23,-0.93,0.31,-2.05,3.57,-4.53
0.24,-0.94,0.30,-1.85,1.86,-3.54
0.24,-0.94,0.31,-2.26,1.08,-2.66
0.24,-0.94,0.31,-2.38,0.40,-2.40
0.24,-0.93,0.31,-2.60,0.78,-2.46
0.24,-0.92,0.30,-2.84,1.31,-2.37
0.24,-0.93,0.31,-2.61,1.33,-2.20
0.23,-0.93,0.30,-2.09,0.95,-2.09
0.24,-0.93,0.30,-1.51,0.29,-2.00
0.23,-0.94,0.30,-1.45,-0.64,-1.50
0.24,-0.93,0.30,-1.69,-0.93,-0.67
0.23,-0.94,0.31,-1.95,-0.49,-0.12
0.24,-0.94,0.30,-1.92,-0.31,-0.09
0.24,-0.93,0.29,-1.05,-3.16,0.06
0.24,-0.94,0.29,-1.47,-5.80,-0.15
0.23,-0.94,0.29,-2.73,-4.05,-0.76
0.23,-0.94,0.30,-2.15,-0.26,-0.76
0.24,-0.94,0.29,-1.22,1.73,-1.37
0.24,-0.93,0.29,-1.15,0.63,-2.08
0.23,-0.94,0.30,-1.22,-0.52,-1.50
0.24,-0.94,0.30,-1.25,-1.69,-1.30
0.24,-0.94,0.29,-1.11,-2.20,-0.81
0.25,-0.94,0.30,-2.00,-1.56,-0.20
0.24,-0.93,0.30,-2.99,-0.34,0.02
0.24,-0.93,0.31,-2.92,1.10,-0.05
0.23,-0.93,0.29,-2.40,1.85,-0.27
0.24,-0.93,0.30,-2.37,1.19,0.03
0.24,-0.94,0.29,-2.37,0.64,-0.02
0.25,-0.94,0.30,-1.94,-0.14,0.20
0.24,-0.94,0.30,-2.53,-0.96,0.49
0.24,-0.94,0.29,-2.27,-1.22,0.49
0.23,-0.94,0.29,-2.14,-0.87,0.61
0.24,-0.94,0.30,-1.80,-0.56,0.08
0.24,-0.93,0.30,-1.57,-0.84,0.49
0.23,-0.94,0.30,-1.47,-1.68,0.67
0.25,-0.94,0.30,-1.63,-1.71,1.07
0.24,-0.93,0.30,-1.69,-1.53,1.15
0.24,-0.93,0.31,-1.83,-2.15,1.51
0.24,-0.94,0.31,-2.56,-2.44,1.88
0.24,-0.93,0.30,-2.76,-2.82,2.02
0.24,-0.93,0.30,-2.76,-3.21,2.11
0.24,-0.94,0.30,-2.55,-3.15,1.73
0.24,-0.94,0.30,-2.55,-2.44,1.59
0.24,-0.94,0.29,-2.32,-2.61,1.27
0.24,-0.94,0.29,-2.49,-2.32,0.95
0.24,-0.94,0.30,-2.69,-2.56,1.31
0.23,-0.94,0.29,-2.92,-2.75,0.82
0.24,-0.94,0.30,-3.04,-2.31,1.13
0.24,-0.94,0.29,-3.50,-1.91,1.42
0.24,-0.94,0.30,-3.66,-1.97,1.57
0.23,-0.93,0.30,-3.68,-1.33,1.60
0.24,-0.94,0.29,-3.50,-1.33,1.74
0.24,-0.93,0.29,-3.47,-1.45,2.06
0.24,-0.93,0.30,-3.40,-2.14,2.34
0.24,-0.94,0.29,-3.39,-3.01,2.31
0.24,-0.94,0.30,-3.04,-3.89,2.56
0.24,-0.94,0.30,-3.08,-4.41,2.63
0.24,-0.94,0.29,-2.76,-4.53,2.66
0.23,-0.94,0.29,-2.95,-4.44,2.87
0.24,-0.94,0.29,-3.07,-4.38,2.87
0.24,-0.94,0.29,-3.07,-4.00,3.13
0.24,-0.94,0.29,-3.63,-3.71,3.48
0.24,-0.94,0.29,-3.69,-3.65,3.62
0.24,-0.94,0.28,-4.09,-3.74,4.24
0.24,-0.94,0.29,-4.06,-3.88,4.63
0.24,-0.93,0.28,-4.41,-4.26,5.01
0.23,-0.93,0.29,-4.11,-4.11,5.31
0.23,-0.93,0.27,-4.06,-4.46,5.44
0.24,-0.94,0.29,-3.59,-4.55,5.66
0.23,-0.94,0.29,-3.44,-5.01,5.83
0.23,-0.94,0.28,-3.79,-5.18,5.94
0.23,-0.94,0.29,-3.83,-5.50,5.57
0.22,-0.95,0.29,-3.47,-5.53,5.73
0.23,-0.95,0.29,-3.56,-5.88,5.92
0.22,-0.94,0.28,-3.44,-6.14,6.09
0.22,-0.94,0.28,-3.33,-5.42,5.74
0.23,-0.96,0.28,-3.10,-4.64,5.66
0.22,-0.95,0.28,-2.87,-4.34,5.59
0.22,-0.95,0.28,-3.04,-4.82,5.57
0.22,-0.94,0.26,-2.89,-5.63,5.13
0.22,-0.94,0.28,-2.64,-5.74,5.05
0.22,-0.95,0.27,-2.31,-6.11,4.64
0.22,-0.94,0.27,-2.75,-5.98,4.40
0.21,-0.95,0.28,-2.70,-5.63,4.09
0.23,-0.95,0.27,-2.46,-5.08,3.98
0.22,-0.95,0.27,-2.90,-4.05,3.73
0.21,-0.95,0.28,-2.95,-3.60,3.24
0.22,-0.95,0.28,-2.98,-3.89,2.92
0.23,-0.94,0.27,-1.51,-7.18,2.61
0.21,-0.94,0.27,-1.74,-9.85,2.69
0.21,-0.94,0.28,-2.89,-6.84,3.08
0.21,-0.95,0.27,-3.04,-0.96,2.81
0.21,-0.95,0.28,-3.02,1.89,2.58
0.21,-0.95,0.27,-3.22,0.20,2.38
0.22,-0.95,0.28,-2.70,-2.76,2.46
0.21,-0.95,0.28,-1.34,-5.53,2.52
0.21,-0.95,0.27,-1.34,-6.03,2.47
0.21,-0.95,0.27,-2.06,-4.90,2.41
0.20,-0.95,0.27,-2.79,-2.12,2.23
0.21,-0.95,0.28,-3.21,0.98,1.80
0.20,-0.95,0.27,-3.05,2.03,1.15
0.22,-0.95,0.27,-2.76,0.32,1.05
0.22,-0.95,0.26,-2.79,-2.09,0.98
0.21,-0.95,0.27,-2.64,-2.53,0.67
0.21,-0.94,0.27,-2.64,-1.88,0.20
0.21,-0.95,0.27,-2.60,-0.53,0.09
0.23,-0.95,0.27,-2.60,0.24,0.09
0.21,-0.94,0.28,-2.66,0.87,0.08
0.22,-0.94,0.27,-2.50,0.84,-0.06
0.23,-0.95,0.28,-2.40,0.00,0.40
0.22,-0.95,0.27,-2.44,-0.73,0.92
0.22,-0.95,0.27,-2.85,-0.35,1.19
0.22,-0.94,0.27,-2.70,0.99,1.24
0.22,-0.95,0.27,-2.52,1.65,0.89
0.22,-0.95,0.27,-1.66,-2.05,0.67
0.22,-0.95,0.27,-1.11,-6.05,0.63
0.21,-0.95,0.28,-2.06,-4.34,0.82
0.21,-0.95,0.26,-2.17,-0.06,0.66
0.22,-0.95,0.28,-2.08,2.15,0.05
0.21,-0.95,0.26,-2.73,2.35,-0.34
0.22,-0.95,0.28,-2.32,1.16,-0.47
0.22,-0.96,0.27,-1.60,-0.02,-0.67
0.21,-0.95,0.27,-1.19,-1.30,-0.58
0.22,-0.95,0.27,-1.57,-1.83,-0.27
0.22,-0.95,0.27,-2.06,-0.66,-0.09
0.22,-0.95,0.28,-2.64,0.96,0.17
0.22,-0.94,0.28,-2.44,1.25,0.27
0.21,-0.94,0.28,-2.55,0.55,0.34
0.22,-0.95,0.26,-2.63,-0.31,0.37
0.22,-0.95,0.26,-2.53,-0.81,0.34
0.22,-0.95,0.27,-2.37,-0.98,0.52
0.22,-0.95,0.26,-2.17,-0.52,0.58
0.23,-0.95,0.27,-2.09,-0.08,0.96
0.22,-0.95,0.27,-2.31,-0.05,1.37
0.21,-0.95,0.27,-2.11,-0.64,1.80
0.22,-0.95,0.27,-2.34,-1.27,1.69
0.22,-0.94,0.26,-2.31,-1.95,1.63
0.22,-0.95,0.27,-1.79,-1.89,1.56
0.21,-0.95,0.27,-1.62,-2.06,1.21
0.21,-0.95,0.27,-1.34,-1.62,1.04
0.21,-0.95,0.26,-1.16,-1.42,0.87
0.21,-0.95,0.26,-1.22,-1.18,0.50
0.21,-0.95,0.27,-1.34,-1.60,0.41
0.22,-0.95,0.27,-1.34,-1.66,0.38
0.21,-0.95,0.27,-1.59,-1.42,0.17
0.21,-0.95,0.26,-1.82,-0.81,-0.03
0.21,-0.95,0.28,-2.18,0.17,-0.17
0.21,-0.95,0.27,-2.24,0.69,-0.17
0.21,-0.95,0.28,-2.26,1.21,-0.14
0.22,-0.95,0.26,-2.21,1.25,0.15
0.22,-0.95,0.27,-2.14,0.75,0.09
0.21,-0.95,0.27,-2.08,0.55,-0.09
0.22,-0.94,0.27,-2.20,0.41,0.00
0.22,-0.95,0.26,-1.91,0.41,0.15
0.21,-0.95,0.27,-1.77,0.82,0.03
0.22,-0.95,0.27,-1.65,0.64,0.24
0.22,-0.95,0.26,-1.83,0.98,0.31
0.22,-0.95,0.27,-1.92,0.89,0.06
0.22,-0.95,0.26,-2.18,1.27,-0.17
0.22,-0.95,0.27,-1.89,1.77,-0.27
0.22,-0.95,0.27,-1.76,1.98,-0.31
0.21,-0.95,0.27,-1.76,1.92,-0.38
0.22,-0.95,0.27,-1.47,1.45,-0.56
0.22,-0.95,0.27,-1.44,1.21,-0.58
0.22,-0.95,0.28,-1.65,1.25,-0.52
0.22,-0.95,0.27,-1.48,1.30,-0.69
0.22,-0.95,0.27,-1.10,1.65,-0.38
0.22,-0.95,0.28,-1.19,1.51,-0.24
0.22,-0.95,0.28,-1.22,1.30,-0.31
0.21,-0.95,0.27,-1.16,1.65,-0.50
0.22,-0.95,0.27,-1.11,1.39,-0.52
0.23,-0.95,0.27,-0.98,1.73,-0.69
0.22,-0.95,0.28,-0.44,1.51,-0.98
0.22,-0.94,0.27,-0.55,1.85,-1.04
0.22,-0.94,0.27,-0.35,1.86,-0.79
0.22,-0.95,0.28,-0.53,1.48,-0.38
0.21,-0.95,0.27,-0.73,1.36,-0.05
0.22,-0.95,0.28,-1.21,1.36,0.38
0.22,-0.94,0.29,-1.66,1.08,0.49
0.22,-0.95,0.28,-1.82,0.84,0.27
0.22,-0.95,0.28,-1.66,0.53,0.23
0.22,-0.94,0.27,-1.54,0.11,0.08
0.22,-0.95,0.28,-1.34,0.00,-0.11
0.22,-0.95,0.28,-1.15,0.92,-0.69
0.22,-0.94,0.28,-0.90,1.42,-0.05
0.22,-0.94,0.28,-2.37,0.37,0.02
0.22,-0.94,0.27,-2.49,-0.53,0.17
0.22,-0.94,0.28,-2.52,-0.53,-0.11
0.22,-0.95,0.28,-2.09,-0.05,-0.46
0.22,-0.94,0.28,-1.24,-1.56,-0.85
0.22,-0.94,0.28,-0.52,-4.85,-0.96
0.21,-0.95,0.27,-0.78,-5.45,-0.76
0.21,-0.95,0.28,-1.86,-0.89,-0.26
0.22,-0.95,0.28,-2.44,4.18,-0.05
0.22,-0.95,0.27,-2.89,5.53,0.15
0.22,-0.95,0.28,-3.22,3.63,0.31
0.22,-0.95,0.28,-2.35,0.47,0.49
0.22,-0.95,0.27,-1.68,-2.29,0.84
0.22,-0.94,0.27,-1.71,-3.11,0.87
0.22,-0.94,0.29,-1.98,-1.92,0.60
0.21,-0.95,0.28,-2.26,1.18,0.37
0.22,-0.94,0.27,-2.06,3.08,0.21
0.22,-0.94,0.28,-1.94,2.87,0.03
0.22,-0.94,0.27,-1.92,1.02,-0.15
0.23,-0.95,0.27,-2.23,-0.76,-0.12
0.22,-0.95,0.28,-2.02,-1.39,-0.23
0.22,-0.94,0.27,-1.80,-0.84,-0.32
0.21,-0.95,0.28,-1.80,-0.14,-0.44
0.22,-0.94,0.28,-1.51,0.82,-0.52
0.22,-0.95,0.28,-1.19,1.45,-0.52
0.22,-0.96,0.28,-0.92,1.47,-0.24
0.22,-0.94,0.28,-1.07,0.89,0.03
0.23,-0.94,0.28,-1.24,0.31,0.23
0.22,-0.95,0.29,-1.76,0.75,0.46
0.23,-0.96,0.28,-1.24,0.61,0.08
0.23,-0.94,0.28,-0.63,-2.18,-0.27
0.23,-0.94,0.28,-0.52,-4.92,-0.29
0.22,-0.95,0.28,-1.82,-3.42,0.17
0.22,-0.94,0.28,-2.17,1.04,0.18
0.22,-0.94,0.28,-2.14,3.34,-0.08
0.22,-0.94,0.27,-2.56,3.77,-0.49
0.23,-0.95,0.28,-2.17,2.38,-0.43
0.22,-0.94,0.28,-1.69,1.37,-0.85
0.23,-0.95,0.27,-0.66,-2.26,-0.20
0.22,-0.94,0.27,-1.15,-2.99,-0.05
0.23,-0.94,0.28,-1.91,-1.62,-0.41
0.22,-0.94,0.28,-1.39,0.37,-0.17
0.23,-0.95,0.27,-1.42,0.99,-0.29
0.22,-0.94,0.27,-1.95,0.85,-0.21
0.22,-0.94,0.28,-1.92,0.70,-0.08
0.23,-0.94,0.28,-1.86,0.21,0.00
0.22,-0.94,0.28,-1.88,0.06,0.17
0.23,-0.93,0.27,-1.97,-0.41,0.15
0.23,-0.94,0.27,-2.09,-0.08,0.09
0.22,-0.93,0.27,-1.40,0.06,0.46
0.22,-0.94,0.28,-1.39,-0.12,0.55
0.22,-0.94,0.27,-1.63,-0.43,0.72
0.22,-0.94,0.28,-1.69,-0.46,0.85
0.22,-0.94,0.28,-1.74,0.35,0.98
0.22,-0.94,0.27,-1.68,0.96,1.13
0.22,-0.94,0.28,-2.03,1.19,1.13
0.23,-0.94,0.28,-2.02,1.36,1.21
0.22,-0.94,0.28,-2.23,0.49,1.24
0.22,-0.94,0.27,-2.24,0.26,1.27
0.22,-0.95,0.28,-1.79,0.38,1.13
0.22,-0.94,0.28,-1.47,0.08,0.78
0.22,-0.94,0.27,-1.37,-0.12,0.63
0.22,-0.94,0.28,-0.96,-0.47,0.46
0.22,-0.95,0.26,-0.75,-0.31,0.23
0.22,-0.94,0.28,-1.07,-0.27,-0.11
0.22,-0.95,0.27,-1.04,-0.15,0.31
0.22,-0.95,0.28,-1.08,0.05,0.17
0.22,-0.95,0.28,-1.13,-0.09,-0.03
0.22,-0.95,0.27,-0.61,-0.47,-0.29
0.22,-0.95,0.28,-0.55,-0.35,-0.29
0.22,-0.95,0.28,1.27,-0.18,-0.78
0.22,-0.95,0.28,4.18,1.16,-1.10
0.29,-0.87,0.20,56.73,-7.71,-16.70
0.02,-0.83,0.22,78.66,19.21,-51.59
0.05,-0.85,0.26,128.89,56.34,-78.82
0.13,-0.86,0.29,119.53,41.57,-128.89
0.44,-0.84,0.32,167.65,76.09,-102.43
0.31,-0.93,0.61,140.12,107.82,-97.44
0.41,-0.93,0.40,166.67,90.84,-60.34
0.31,-0.82,0.43,176.06,38.00,-42.85
0.26,-0.91,0.34,186.29,-27.60,-38.82
0.40,-0.86,0.55,133.36,-111.98,5.77
0.46,-0.87,0.50,82.23,-138.98,46.49
0.30,-0.77,0.51,53.22,-125.94,42.37
0.23,-0.93,0.62,1.95,-63.89,29.86
0.20,-0.82,0.63,-49.37,20.56,-1.25
0.26,-0.83,0.54,-87.89,83.56,-27.80
0.30,-0.86,0.54,-106.63,129.74,-35.74
0.28,-0.83,0.51,-99.36,143.27,-43.08
0.32,-0.84,0.47,-75.82,125.10,-39.92
0.38,-0.84,0.46,-44.67,78.46,-22.43
0.36,-0.83,0.46,-8.69,24.20,-4.24
0.32,-0.84,0.46,17.89,-22.70,8.20
0.32,-0.85,0.47,33.83,-49.82,16.32
0.32,-0.84,0.48,36.85,-53.74,16.67
0.26,-0.84,0.54,29.68,-41.16,9.42
0.33,-0.83,0.49,14.11,-25.92,15.19
0.29,-0.88,0.54,-2.70,-2.47,-0.50
0.29,-0.86,0.52,-21.31,12.58,-5.28
0.29,-0.86,0.51,-29.18,25.94,-7.10
0.29,-0.85,0.49,-33.83,28.40,-11.01
0.32,-0.85,0.47,-27.13,21.45,-6.85
0.30,-0.85,0.47,-18.87,16.37,-5.10
0.30,-0.84,0.48,-6.84,11.77,-4.58
0.31,-0.84,0.48,7.37,3.54,-3.74
0.32,-0.84,0.44,21.95,-9.16,2.43
0.30,-0.85,0.47,31.21,-22.46,1.60
0.31,-0.82,0.49,32.35,-30.93,3.28
0.30,-0.84,0.51,30.38,-31.19,2.92
0.31,-0.85,0.52,24.12,-25.79,0.11
0.31,-0.85,0.53,15.01,-18.90,-5.19
0.31,-0.84,0.51,8.49,-9.39,-3.19
0.30,-0.86,0.52,1.44,-2.09,-5.71
0.30,-0.85,0.52,-2.75,6.98,-3.63
0.30,-0.84,0.51,-5.65,11.92,-5.57
0.32,-0.85,0.50,-3.28,11.45,-4.99
0.32,-0.83,0.50,0.08,5.51,-4.64
0.32,-0.83,0.49,4.93,-3.15,-1.83
0.31,-0.84,0.50,9.44,-11.53,-0.89
0.32,-0.84,0.51,6.99,-15.27,2.41
0.33,-0.85,0.49,6.29,-12.09,4.12
0.30,-0.83,0.53,-0.66,-4.95,0.73
0.31,-0.84,0.52,-6.17,3.39,-0.14
0.30,-0.84,0.51,-12.00,12.20,-3.68
0.31,-0.86,0.52,-14.52,16.61,-4.47
0.32,-0.83,0.49,-14.37,17.33,-3.76
0.31,-0.84,0.51,-12.11,12.20,-3.63
0.32,-0.83,0.50,-7.68,5.68,-1.51
0.32,-0.83,0.50,-3.27,0.00,-1.04
0.32,-0.84,0.50,0.11,-4.23,0.26
0.32,-0.84,0.51,1.66,-5.42,0.35
0.31,-0.84,0.50,1.73,-4.50,0.08
0.31,-0.84,0.51,0.67,-1.27,-1.07
0.31,-0.84,0.51,-1.86,2.29,-1.48
0.31,-0.84,0.52,-4.34,5.69,-2.08
0.32,-0.84,0.51,-5.33,8.23,-2.78
0.32,-0.84,0.51,-6.55,8.29,-3.24
0.32,-0.83,0.50,-6.17,5.42,-2.09
0.32,-0.83,0.51,-5.77,1.73,-0.15
0.31,-0.83,0.51,-5.48,1.66,0.75
0.32,-0.84,0.51,-4.81,3.74,-0.11
0.31,-0.85,0.49,-4.15,5.19,-1.47
0.32,-0.84,0.50,-2.55,4.64,-1.89
0.31,-0.84,0.51,-1.28,2.31,-2.09
0.33,-0.85,0.50,0.32,-2.08,-1.02
0.32,-0.84,0.49,1.74,-7.08,-0.64
0.33,-0.84,0.50,2.23,-10.17,0.38
0.32,-0.83,0.50,2.06,-9.62,0.21
0.31,-0.83,0.50,0.56,-6.69,-1.59
0.33,-0.84,0.50,-0.66,-2.98,-3.19
0.32,-0.83,0.49,-1.13,-0.64,-3.65
0.33,-0.83,0.49,-0.52,-0.08,-3.15
0.33,-0.83,0.50,0.49,-0.61,-2.84
0.33,-0.82,0.50,2.27,-2.49,-1.07
0.32,-0.82,0.51,3.50,-4.56,0.75
0.32,-0.82,0.50,4.24,-6.31,2.64
0.32,-0.82,0.51,4.99,-6.46,3.97
0.32,-0.82,0.51,3.24,-3.66,3.74
0.32,-0.83,0.51,2.87,0.00,3.83
0.32,-0.83,0.51,1.83,2.21,2.73
0.31,-0.84,0.52,1.54,3.18,2.29
0.31,-0.84,0.51,1.60,3.60,2.31
0.31,-0.83,0.51,2.05,1.47,2.46
0.31,-0.84,0.52,1.57,-0.70,2.31
0.31,-0.84,0.52,1.24,-2.02,2.82
0.31,-0.83,0.52,0.70,-2.21,2.37
0.31,-0.84,0.53,-0.44,-1.25,1.34
0.30,-0.84,0.53,-1.62,0.69,0.44
0.31,-0.84,0.53,-3.19,2.61,-0.37
0.32,-0.84,0.53,-4.24,3.79,-1.34
0.32,-0.84,0.53,-5.04,3.80,-2.24
0.31,-0.82,0.51,-5.05,3.05,-1.88
0.32,-0.84,0.51,-5.98,2.55,-3.21
0.31,-0.84,0.51,-5.94,1.45,-3.39
0.32,-0.83,0.52,-6.03,0.67,-3.28
0.32,-0.85,0.51,-6.14,0.56,-2.03
0.32,-0.83,0.52,-6.64,0.72,-1.50
0.32,-0.84,0.51,-6.96,1.30,-1.30
0.32,-0.82,0.51,-7.18,2.52,-1.19
0.32,-0.82,0.50,-7.53,4.47,-1.45
0.32,-0.82,0.50,-7.73,5.25,-2.08
0.33,-0.82,0.50,-6.21,4.50,-2.35
0.33,-0.84,0.51,-4.05,3.10,-2.50
0.34,-0.83,0.52,-1.95,1.34,-0.95
0.33,-0.82,0.51,-0.32,-0.67,-1.39
0.33,-0.83,0.51,1.63,-2.70,-0.34
0.33,-0.83,0.51,2.92,-5.53,-0.35
0.32,-0.83,0.51,3.73,-6.81,0.23
0.32,-0.84,0.52,3.65,-6.81,0.53
0.32,-0.83,0.51,2.58,-5.76,0.47
0.32,-0.83,0.49,0.84,-4.55,-0.37
0.32,-0.84,0.52,-0.46,-1.68,0.18
0.31,-0.83,0.53,-0.58,-1.50,-0.66
0.30,-0.82,0.52,-3.54,-0.31,-3.34
0.33,-0.83,0.51,-2.29,0.73,-1.27
0.33,-0.83,0.50,-2.93,-0.02,-1.10
0.33,-0.84,0.52,-0.67,-1.15,0.21
0.32,-0.83,0.51,-3.02,-2.40,0.50
0.32,-0.83,0.50,-1.74,-2.00,1.77
0.32,-0.83,0.51,-1.88,-1.42,0.69
0.33,-0.83,0.50,-2.20,-1.13,0.27
0.32,-0.84,0.51,-2.50,-0.09,0.47
0.32,-0.83,0.51,-2.49,0.08,-0.02
0.32,-0.83,0.50,-1.59,0.08,0.58
0.32,-0.83,0.51,-1.39,-1.18,0.37
0.33,-0.83,0.50,-1.86,-0.52,1.33
0.32,-0.84,0.51,-0.82,-2.11,0.21
0.32,-0.83,0.50,-1.25,-1.88,-0.26
0.32,-0.84,0.50,-0.73,-1.47,0.08
0.32,-0.84,0.50,-1.13,-0.73,-1.05
0.32,-0.83,0.50,-1.05,-0.20,-1.47
0.32,-0.83,0.51,-2.17,1.01,-1.79
0.33,-0.83,0.50,-2.96,1.44,-1.86
0.33,-0.84,0.51,-3.01,1.80,-1.97
0.33,-0.82,0.51,-4.26,2.15,-1.85
0.33,-0.82,0.51,-4.90,3.30,-2.21
0.33,-0.83,0.51,-4.67,4.99,-2.58
0.33,-0.82,0.51,-6.08,5.15,-2.92
0.33,-0.83,0.50,-5.59,4.58,-2.31
0.35,-0.84,0.50,-4.34,3.07,-2.31
0.33,-0.83,0.50,-3.62,0.96,-1.48
0.34,-0.83,0.50,-3.76,-1.76,-0.37
0.32,-0.83,0.51,-4.43,-1.30,0.66
0.33,-0.84,0.49,-6.64,8.47,2.32
0.30,-0.85,0.53,-5.01,7.07,-6.49
0.33,-0.83,0.53,-6.87,10.17,-5.74
0.34,-0.83,0.50,-4.06,7.89,-3.92
0.34,-0.84,0.50,-1.71,2.55,-1.91
0.34,-0.83,0.51,0.05,-3.07,0.75
0.33,-0.83,0.49,1.65,-6.00,2.69
0.33,-0.82,0.51,-0.89,-6.50,1.54
0.26,-0.83,0.51,-10.87,-12.05,-33.39
0.37,-0.88,0.53,-0.98,3.94,-17.39
0.37,-0.84,0.55,-6.35,3.07,-6.90
0.35,-0.85,0.49,-4.31,2.11,-1.62
0.32,-0.82,0.50,-0.38,0.00,-3.77
0.33,-0.84,0.50,-2.17,-0.03,-5.10
0.34,-0.84,0.51,-2.61,1.44,-4.44
0.34,-0.82,0.49,-1.15,-0.46,-3.44
0.34,-0.83,0.50,-1.73,-1.57,-2.61
0.34,-0.83,0.51,-2.84,-0.58,-0.72
0.34,-0.83,0.52,-3.77,2.32,-1.88
0.34,-0.83,0.50,-4.50,4.02,-2.50
0.34,-0.83,0.50,-5.48,4.76,-3.50
0.35,-0.83,0.50,-4.43,4.93,-3.79
0.36,-0.83,0.50,-3.21,2.35,-3.97
0.35,-0.82,0.49,-2.17,-2.43,-1.39
0.34,-0.84,0.49,-1.71,-4.50,0.82
0.33,-0.83,0.49,-2.31,-3.13,0.53
0.34,-0.84,0.51,-3.56,1.24,-1.62
0.34,-0.83,0.51,-3.69,5.25,-3.25
0.34,-0.83,0.50,-4.14,6.35,-4.64
0.34,-0.83,0.50,-3.42,4.61,-4.03
0.35,-0.84,0.49,-2.00,2.23,-2.70
0.35,-0.82,0.50,-1.54,-0.35,-1.10
0.35,-0.83,0.52,-1.53,-0.47,-1.39
0.37,-0.81,0.45,-3.88,1.79,1.51
0.34,-0.83,0.50,-3.63,3.76,-4.02
0.35,-0.83,0.50,-4.98,4.73,-4.43
0.34,-0.83,0.50,-4.37,6.11,-3.80
0.35,-0.82,0.50,-4.75,5.86,-4.38
0.35,-0.83,0.50,-4.26,4.53,-3.91
0.35,-0.83,0.50,-3.51,2.64,-3.02
0.36,-0.82,0.50,-2.70,1.25,-1.89
0.35,-0.83,0.50,-2.24,0.29,-1.91
0.35,-0.83,0.51,-3.37,0.46,-2.00
0.35,-0.82,0.51,-3.19,1.36,-0.95
0.33,-0.84,0.52,-2.63,1.85,-2.76
0.33,-0.81,0.51,-6.70,7.91,0.06
0.35,-0.83,0.50,-3.13,3.53,-3.51
0.35,-0.83,0.51,-3.42,3.45,-4.09
0.34,-0.82,0.50,-2.70,2.17,-3.45
0.35,-0.83,0.51,-2.09,1.30,-2.40
0.35,-0.83,0.50,-1.53,0.00,-2.09
0.35,-0.82,0.50,-1.74,0.15,-2.31
0.35,-0.82,0.51,-2.06,0.02,-2.31
0.35,-0.82,0.50,-2.31,0.14,-2.18
0.35,-0.82,0.50,-2.15,0.35,-1.86
0.35,-0.81,0.50,-2.72,1.44,-2.02
0.35,-0.82,0.50,-2.41,1.42,-2.08
0.35,-0.82,0.50,-2.49,1.59,-2.21
0.35,-0.83,0.50,-2.08,0.35,-2.58
0.35,-0.83,0.50,-2.37,0.35,-2.41
0.36,-0.83,0.50,-2.06,0.12,-1.34
0.35,-0.82,0.51,-2.72,0.24,-2.15
0.35,-0.82,0.51,-3.10,0.06,-1.73
0.37,-0.82,0.49,-3.44,2.70,-1.73
0.36,-0.82,0.51,-4.46,3.73,-2.96
0.36,-0.82,0.50,-5.85,3.51,-3.94
0.36,-0.83,0.50,-5.19,3.01,-2.73
0.35,-0.83,0.50,-4.81,2.49,-2.55
0.36,-0.82,0.49,-4.35,1.74,-2.81
0.36,-0.82,0.50,-4.29,2.43,-2.58
0.35,-0.82,0.49,-3.77,2.32,-2.76
0.35,-0.82,0.50,-2.96,2.02,-1.77
0.35,-0.82,0.50,-2.67,0.75,-1.83
0.36,-0.82,0.50,-2.21,-0.08,-1.04
0.36,-0.83,0.50,-2.53,1.05,-1.10
0.37,-0.81,0.49,-2.76,3.21,-2.03
0.35,-0.82,0.51,-2.76,2.00,-2.84
0.35,-0.83,0.50,-3.80,1.89,-2.18
0.35,-0.82,0.50,-3.04,2.38,-1.04
0.36,-0.82,0.49,-3.15,2.85,-1.68
0.36,-0.82,0.49,-3.10,2.32,-1.66
0.36,-0.83,0.49,-2.90,2.26,-0.84
0.35,-0.83,0.50,-2.40,1.62,-0.47
0.36,-0.82,0.51,-1.68,1.05,-0.67
0.36,-0.81,0.50,-2.17,0.90,-0.81
0.35,-0.82,0.50,-1.98,0.87,-0.92
0.35,-0.82,0.51,-2.20,0.35,-0.78
0.36,-0.83,0.50,-1.95,-0.12,0.44
0.36,-0.83,0.50,-2.11,-0.37,0.20
0.36,-0.83,0.51,-2.05,0.46,0.34
0.35,-0.82,0.51,-1.94,0.24,0.11
0.36,-0.82,0.50,-1.88,-0.12,0.40
0.36,-0.83,0.50,-1.71,-0.18,-0.11
0.36,-0.83,0.51,-1.73,-0.66,-0.66
0.36,-0.83,0.50,-1.13,-0.92,-0.46
0.36,-0.82,0.50,-1.76,-0.55,-0.27
0.35,-0.82,0.50,-2.00,-0.70,-0.84
0.36,-0.82,0.49,-2.17,-0.15,-0.63
0.36,-0.83,0.49,-2.50,0.56,-0.47
0.36,-0.81,0.50,-2.76,0.99,-0.75
0.36,-0.82,0.50,-2.47,1.11,-1.51
0.36,-0.82,0.50,-2.05,0.03,-2.08
0.37,-0.82,0.49,-1.13,-1.73,-2.02
0.36,-0.83,0.50,-1.21,-3.77,-0.73
0.36,-0.82,0.50,-2.29,-3.56,0.96
0.35,-0.83,0.51,-3.65,0.03,0.24
0.35,-0.83,0.50,-5.27,5.22,-2.47
0.37,-0.83,0.50,-5.24,7.71,-3.80
0.36,-0.82,0.49,-4.82,6.44,-3.92
0.36,-0.82,0.49,-4.27,3.30,-1.97
0.36,-0.82,0.49,-3.89,0.44,-0.34
0.37,-0.82,0.49,-3.33,-1.19,0.64
0.36,-0.82,0.50,-3.30,-0.99,0.76
0.35,-0.83,0.49,-3.68,2.26,-1.13
0.35,-0.82,0.50,-4.79,3.74,-2.31
0.36,-0.83,0.50,-5.77,5.37,-2.89
0.37,-0.83,0.49,-5.15,5.51,-3.02
0.36,-0.82,0.50,-5.54,4.61,-3.82
0.36,-0.82,0.49,-4.63,2.95,-3.69
0.36,-0.81,0.48,-4.17,1.92,-3.62
0.37,-0.82,0.49,-3.25,0.56,-3.66
0.36,-0.83,0.49,-3.53,-0.56,-2.27
0.36,-0.82,0.50,-4.81,1.66,-1.53
0.35,-0.84,0.53,-3.15,3.33,-4.24
0.36,-0.82,0.51,-8.56,6.32,-7.30
0.39,-0.82,0.50,-6.05,7.31,-5.48
0.37,-0.84,0.47,-4.63,8.26,-4.47
0.37,-0.82,0.49,-4.73,4.31,-6.82
0.38,-0.83,0.49,-2.17,-1.31,-3.11
0.37,-0.83,0.48,-1.98,-5.16,-0.98
0.37,-0.82,0.49,-3.27,-4.49,-0.79
0.37,-0.81,0.50,-5.25,-0.63,-0.67
0.36,-0.82,0.49,-7.88,2.92,-2.23
0.36,-0.83,0.48,-8.35,7.22,-4.29
0.36,-0.83,0.49,-8.29,9.39,-5.79
0.37,-0.81,0.49,-7.47,7.73,-5.47
0.37,-0.80,0.49,-5.91,7.01,-0.17
0.35,-0.83,0.48,-3.25,-0.34,0.64
0.37,-0.83,0.49,-2.26,-2.76,0.95
0.38,-0.81,0.49,-3.02,-1.11,-0.14
0.38,-0.82,0.50,-2.95,1.10,-1.79
0.35,-0.80,0.52,-2.49,1.68,1.36
0.36,-0.84,0.51,-0.93,-0.56,1.98
0.36,-0.83,0.50,-0.84,0.44,1.71
0.38,-0.81,0.51,2.47,1.07,2.55
0.38,-0.82,0.51,3.51,-0.29,4.02
0.35,-0.83,0.49,5.27,-5.04,8.50
0.35,-0.84,0.47,9.34,-9.11,12.26
0.37,-0.82,0.49,8.96,-8.85,11.53
0.40,-0.82,0.50,6.06,-4.17,8.34
0.38,-0.80,0.49,2.08,0.50,5.31
0.37,-0.83,0.50,0.81,1.86,2.70
0.37,-0.82,0.49,-0.60,3.13,0.34
0.38,-0.83,0.50,-2.15,4.27,-0.79
0.36,-0.83,0.50,-3.50,3.63,-1.57
0.36,-0.83,0.50,-2.89,2.89,-1.65
0.36,-0.83,0.51,-3.56,3.16,-1.59
0.36,-0.82,0.50,-4.12,3.74,-1.88
0.36,-0.83,0.49,-3.57,3.56,-2.34
0.36,-0.82,0.50,-3.77,2.35,-1.08
0.36,-0.82,0.50,-4.12,1.85,-0.15
0.36,-0.82,0.50,-3.40,2.09,-0.50
0.37,-0.82,0.50,-4.49,2.73,-2.00
0.37,-0.81,0.50,-5.31,3.51,-2.41
0.37,-0.82,0.50,-5.27,3.51,-3.25
0.36,-0.84,0.50,-4.85,2.73,-2.82
0.36,-0.83,0.48,-4.24,2.11,-2.84
0.36,-0.83,0.48,-3.74,1.18,-3.50
0.36,-0.84,0.50,-2.84,2.98,-5.02
0.35,-0.82,0.51,-9.16,5.07,-8.64
0.40,-0.82,0.50,-8.37,7.50,-7.45
0.37,-0.80,0.49,-9.30,8.23,-8.73
0.36,-0.81,0.49,-9.02,4.75,-7.54
0.36,-0.83,0.48,-5.13,0.76,-4.08
0.35,-0.84,0.49,-1.91,-2.40,-0.89
0.37,-0.83,0.50,-0.75,-3.51,0.12
0.38,-0.81,0.50,-1.28,-3.33,0.02
0.37,-0.82,0.50,-2.60,-1.15,-1.11
0.35,-0.84,0.50,-2.31,0.40,0.11
0.35,-0.84,0.49,-1.34,0.38,0.60
0.36,-0.83,0.50,-1.30,-0.20,1.60
0.38,-0.82,0.50,-2.53,1.56,2.69
0.35,-0.84,0.50,-2.32,1.34,2.24
0.36,-0.83,0.49,-1.83,1.21,4.08
0.35,-0.82,0.50,-1.42,0.93,4.67
0.37,-0.82,0.50,-0.18,1.11,5.39
0.37,-0.82,0.49,0.27,1.53,5.30
0.38,-0.83,0.48,0.44,1.19,4.50
0.37,-0.83,0.48,0.46,0.03,4.53
0.37,-0.82,0.50,0.38,-0.41,3.53
0.37,-0.81,0.50,-0.34,-0.09,3.02
0.37,-0.81,0.51,-1.45,1.48,0.96
0.37,-0.83,0.50,-2.41,3.39,-0.58
0.37,-0.82,0.50,-3.31,4.15,-2.00
0.36,-0.82,0.49,-2.64,3.77,-1.37
0.36,-0.82,0.48,-2.15,1.73,-0.41
0.36,-0.82,0.48,-1.50,1.10,0.03
0.37,-0.82,0.49,-0.76,0.76,-0.49
0.38,-0.83,0.49,1.71,-1.24,-0.29
0.36,-0.83,0.51,0.49,1.45,-2.02
0.38,-0.81,0.50,-0.85,-0.11,-1.18
0.36,-0.82,0.48,-1.33,-1.24,0.00
0.36,-0.82,0.49,-2.79,0.03,-1.40
0.36,-0.83,0.50,-3.36,1.51,-1.10
0.35,-0.82,0.49,-3.51,2.32,-1.37
0.36,-0.82,0.50,-2.61,2.18,-2.17
0.38,-0.82,0.49,-2.76,2.00,-2.21
0.37,-0.81,0.49,-2.47,0.02,-1.21
0.36,-0.81,0.49,-1.94,-1.21,0.67
0.36,-0.82,0.49,-3.74,0.55,-0.15
0.37,-0.83,0.49,-2.67,2.84,-0.37
0.36,-0.82,0.51,-2.35,4.20,-2.27
0.37,-0.82,0.50,-1.80,3.08,-1.66
0.37,-0.83,0.49,-1.83,0.52,-0.29
0.36,-0.82,0.49,-1.60,-1.45,1.54
0.36,-0.82,0.49,-0.66,-3.62,2.70
0.36,-0.82,0.51,-0.96,-3.59,3.27
0.36,-0.82,0.51,-2.50,-0.66,1.19
0.36,-0.82,0.51,-3.56,2.53,-0.63
0.36,-0.83,0.51,-4.06,4.24,-1.44
0.36,-0.82,0.50,-3.77,3.36,-1.13
0.36,-0.82,0.50,-3.19,2.05,-1.44
0.36,-0.83,0.51,-1.86,1.01,-1.22
0.37,-0.83,0.51,-1.74,0.53,-1.16
0.37,-0.82,0.49,-2.05,0.32,-1.92
0.37,-0.82,0.49,-2.84,0.60,-1.66
0.36,-0.82,0.50,-3.22,0.34,-1.07
0.36,-0.82,0.50,-4.02,1.60,-1.25
0.36,-0.82,0.49,-4.61,3.37,-1.85
0.36,-0.82,0.50,-4.58,3.85,-1.92
0.36,-0.82,0.50,-4.26,3.21,-1.25
0.37,-0.83,0.50,-3.51,2.49,-0.82
0.37,-0.82,0.49,-1.85,1.77,-1.66
0.38,-0.82,0.50,-0.35,-0.20,-1.95
0.37,-0.82,0.49,0.70,-4.26,-0.49
0.37,-0.82,0.48,0.43,-4.63,1.60
0.35,-0.82,0.51,-1.15,-2.23,0.38
0.37,-0.82,0.47,-0.99,2.87,-0.06
0.37,-0.80,0.51,-4.02,4.15,-3.74
0.38,-0.81,0.50,-3.57,4.99,-1.98
0.37,-0.82,0.49,-3.01,4.38,-0.85
0.36,-0.81,0.49,-2.18,1.56,0.03
0.37,-0.82,0.50,-0.82,-1.44,1.37
0.37,-0.82,0.50,-0.27,-3.37,1.91
0.37,-0.82,0.50,0.02,-3.95,1.66
0.37,-0.82,0.50,-0.09,-2.67,0.67
0.37,-0.83,0.49,-0.70,-1.27,0.61
0.37,-0.83,0.51,-1.19,-0.31,0.52
0.36,-0.82,0.49,-1.98,0.61,0.21
0.36,-0.83,0.50,-2.75,1.39,0.60
0.37,-0.82,0.50,-3.65,1.65,0.05
0.37,-0.82,0.51,-3.40,1.53,0.60
0.37,-0.82,0.49,-3.19,0.58,0.23
0.37,-0.83,0.50,-2.69,0.15,-0.46
0.37,-0.82,0.49,-1.97,-0.20,-0.66
0.37,-0.82,0.50,-1.48,-0.21,-0.81
0.37,-0.83,0.49,-1.21,-0.05,-1.18
0.37,-0.83,0.48,-0.82,0.35,-1.42
0.37,-0.82,0.49,-1.16,-0.41,-1.22
0.38,-0.82,0.49,-1.44,-0.90,-0.31
0.38,-0.81,0.50,-2.37,-0.73,-0.02
0.37,-0.81,0.50,-3.31,0.34,-0.11
0.37,-0.82,0.50,-3.50,1.59,0.18
0.37,-0.82,0.49,-3.82,2.49,-0.21
0.37,-0.82,0.49,-4.50,2.82,-0.17
0.36,-0.81,0.49,-3.88,1.57,1.08
0.36,-0.81,0.48,-3.15,0.58,1.02
0.37,-0.82,0.49,-2.52,0.37,0.76
0.37,-0.82,0.50,-2.73,0.40,0.61
0.38,-0.82,0.49,-2.21,0.26,0.73
0.37,-0.82,0.50,-2.38,0.05,0.43
0.37,-0.82,0.49,-2.43,0.52,1.04
0.37,-0.81,0.50,-2.67,1.04,0.56
0.37,-0.82,0.50,-2.92,1.34,0.31
0.37,-0.82,0.49,-3.36,1.83,0.44
0.37,-0.83,0.49,-4.18,2.41,0.20
0.37,-0.82,0.50,-2.96,1.21,0.11
0.37,-0.82,0.49,-2.49,0.35,0.49
0.37,-0.82,0.49,-2.06,-0.15,0.47
0.37,-0.82,0.50,-1.94,-0.38,0.72
0.37,-0.82,0.50,-1.57,-0.47,0.20
0.37,-0.83,0.49,-1.53,0.15,-0.11
0.37,-0.82,0.49,-2.05,-0.09,-0.24
0.37,-0.82,0.50,-1.85,0.23,0.21
0.37,-0.82,0.49,-2.44,0.55,-0.14
0.37,-0.82,0.50,-2.93,1.19,-0.18
0.37,-0.81,0.50,-3.02,1.19,-0.40
0.37,-0.82,0.50,-2.69,1.10,-0.35
0.37,-0.82,0.49,-2.43,0.50,-0.14
0.37,-0.82,0.50,-1.66,-0.34,-0.09
0.37,-0.82,0.50,-0.69,-1.15,0.44
0.37,-0.82,0.49,-0.58,-1.18,-0.34
0.37,-0.82,0.50,-0.76,-1.01,-0.87
0.36,-0.82,0.49,-0.90,-0.84,-0.93
0.36,-0.83,0.49,-0.78,-0.66,-0.72
0.37,-0.82,0.49,-1.66,0.70,-1.88
0.37,-0.82,0.50,-2.34,2.34,-2.29
0.37,-0.82,0.50,-2.58,3.22,-1.71
0.37,-0.82,0.49,-2.90,2.87,-1.05
0.38,-0.82,0.50,-2.98,2.47,-0.93
0.37,-0.81,0.49,-3.08,2.49,0.17
0.37,-0.81,0.50,-2.63,0.96,0.38
0.36,-0.81,0.51,-3.42,0.95,0.47
0.37,-0.82,0.50,-2.82,1.68,0.11
0.37,-0.82,0.50,-1.77,1.34,-0.67
0.36,-0.83,0.49,-0.73,-0.60,-0.08
0.37,-0.82,0.50,-0.08,-2.05,0.40
0.37,-0.82,0.50,-0.06,-2.21,0.35
0.37,-0.83,0.50,-0.64,-2.15,-0.46
0.37,-0.83,0.50,-1.16,-0.90,-0.27
0.37,-0.82,0.49,-2.43,0.06,-0.15
0.37,-0.81,0.49,-2.99,1.16,-0.69
0.38,-0.82,0.50,-3.39,2.61,-1.82
0.38,-0.82,0.50,-3.50,2.53,-2.41
0.37,-0.81,0.50,-3.40,0.26,-1.59
0.37,-0.81,0.49,-3.69,-1.51,0.26
0.36,-0.82,0.51,-3.80,-0.11,0.98
0.37,-0.82,0.49,-3.39,1.89,0.00
0.37,-0.83,0.50,-2.14,3.74,-1.57
0.38,-0.82,0.50,-1.79,2.67,-1.77
0.37,-0.82,0.49,-0.93,-0.27,0.03
0.37,-0.83,0.49,-0.20,-3.85,1.73
0.37,-0.83,0.51,-0.75,-4.92,2.78
0.37,-0.81,0.50,-1.76,-3.51,2.85
0.36,-0.81,0.50,-3.45,-0.49,1.54
0.36,-0.82,0.49,-4.82,2.95,0.23
0.37,-0.82,0.50,-5.76,4.72,-0.89
0.37,-0.82,0.49,-5.27,4.72,-1.07
0.37,-0.82,0.49,-3.60,2.52,-0.49
0.37,-0.82,0.50,-2.18,0.17,0.02
0.38,-0.82,0.50,-0.81,-2.00,0.55
0.37,-0.82,0.50,-0.14,-3.74,0.67
0.37,-0.82,0.50,-0.03,-4.15,1.16
0.37,-0.81,0.47,-2.32,-2.87,-0.18
0.36,-0.81,0.50,-2.29,-0.18,0.93
0.37,-0.82,0.51,-4.58,2.21,-0.41
0.37,-0.82,0.49,-5.40,4.27,-0.23
0.37,-0.82,0.48,-5.86,5.28,0.29
0.37,-0.82,0.50,-4.85,4.69,0.52
0.38,-0.82,0.49,-3.73,3.18,0.03
0.38,-0.82,0.49,-1.85,-0.67,1.22
0.37,-0.82,0.49,-1.28,-4.67,3.59
0.37,-0.83,0.49,-1.66,-4.20,4.26
0.36,-0.82,0.50,-2.44,-1.07,2.46
0.37,-0.82,0.49,-3.07,3.05,0.06
0.37,-0.83,0.49,-3.97,5.45,-1.69
0.38,-0.83,0.48,-3.53,5.37,-2.24
0.37,-0.83,0.50,-2.47,3.10,-1.25
0.37,-0.83,0.50,-1.95,0.69,-1.34
0.38,-0.81,0.50,-1.56,-0.84,-1.28
0.37,-0.82,0.49,-1.01,-1.94,-0.60
0.36,-0.83,0.50,-1.22,-1.57,-0.89
0.37,-0.81,0.50,-2.27,-0.15,-0.87
0.38,-0.81,0.51,-3.22,1.56,-1.50
0.37,-0.81,0.49,-3.92,3.04,-1.88
0.37,-0.82,0.49,-3.53,2.40,-1.66
0.37,-0.82,0.49,-3.19,1.68,-1.08
0.37,-0.82,0.50,-2.75,0.82,-0.63
0.37,-0.81,0.50,-2.46,0.14,-0.27
0.37,-0.82,0.50,-2.53,-0.15,-0.84
0.37,-0.82,0.50,-2.41,0.05,-0.31
0.38,-0.81,0.49,-2.84,0.44,-0.32
0.37,-0.82,0.49,-2.82,0.92,-0.46
0.37,-0.82,0.49,-2.89,1.39,-0.44
0.37,-0.81,0.50,-2.75,1.07,-0.20
0.37,-0.81,0.49,-2.89,0.90,-0.17
0.37,-0.81,0.48,-2.49,0.99,0.29
0.37,-0.82,0.48,-2.24,1.05,-0.06
0.36,-0.82,0.49,-2.03,0.90,0.12
0.36,-0.82,0.49,-1.85,1.59,0.15
0.37,-0.82,0.49,-1.60,1.68,0.17
0.37,-0.83,0.49,-1.57,2.32,-0.29
0.38,-0.83,0.50,-1.68,2.60,-0.09
0.37,-0.83,0.49,-2.32,2.70,-0.90
0.37,-0.82,0.50,-1.97,2.50,-0.38
0.37,-0.80,0.49,-3.31,2.40,-1.11
0.38,-0.82,0.50,-3.04,2.15,-1.04
0.37,-0.82,0.51,-3.22,1.56,-0.32
0.36,-0.82,0.50,-2.70,1.08,-0.02
0.37,-0.82,0.50,-2.34,0.81,-0.17
0.37,-0.82,0.50,-2.17,0.73,-0.49
0.37,-0.82,0.50,-2.41,0.24,-0.95
0.38,-0.82,0.49,-1.85,0.12,-0.55
0.37,-0.82,0.50,-1.71,-0.69,0.17
0.38,-0.81,0.50,-2.09,-1.07,0.50
0.36,-0.81,0.49,-2.21,-0.99,0.53
0.36,-0.82,0.49,-2.76,-0.44,0.29
0.37,-0.82,0.49,-3.18,0.37,0.11
0.37,-0.82,0.50,-3.39,1.10,-0.66
0.37,-0.82,0.49,-3.28,2.03,-0.96
0.37,-0.82,0.49,-2.95,1.39,-0.69
0.38,-0.82,0.49,-2.52,0.81,-0.52
0.37,-0.81,0.48,-2.02,0.12,-0.49
0.38,-0.82,0.49,-1.80,-0.34,-0.55
0.38,-0.82,0.49,-1.88,-0.69,0.31
0.38,-0.82,0.49,-2.20,-0.63,0.60
0.38,-0.82,0.49,-2.31,0.00,0.84
0.37,-0.82,0.48,-2.69,0.49,0.26
0.37,-0.83,0.49,-2.55,1.10,0.64
0.38,-0.81,0.50,-2.84,1.31,0.15
0.37,-0.83,0.49,-3.22,1.60,-0.73
0.38,-0.82,0.49,-2.50,1.24,-0.23
0.37,-0.82,0.50,-2.32,0.56,-0.09
0.37,-0.83,0.50,-2.06,0.29,0.23
0.37,-0.83,0.50,-1.94,0.14,0.24
0.38,-0.82,0.49,-2.15,0.52,-0.32
0.38,-0.82,0.49,-2.69,1.31,-0.34
0.38,-0.82,0.51,-4.06,2.34,-1.76
0.37,-0.82,0.49,-3.15,1.97,-0.76
0.38,-0.83,0.50,-3.40,1.27,-0.38
0.37,-0.81,0.50,-3.01,0.81,-0.24
0.37,-0.81,0.48,-2.98,0.67,-0.95
0.38,-0.81,0.49,-2.69,0.69,-0.69
0.36,-0.81,0.48,-2.18,0.37,-0.47
0.38,-0.82,0.49,-1.65,-0.37,-1.16
0.38,-0.82,0.49,-0.34,-0.72,-1.66
0.38,-0.82,0.49,0.08,-2.20,-1.65
0.37,-0.82,0.49,-0.58,-3.65,-0.31
0.37,-0.82,0.49,-2.24,-3.04,1.13
0.37,-0.82,0.49,-3.44,-0.12,0.87
0.37,-0.83,0.50,-4.05,4.35,-1.05
0.38,-0.81,0.51,-4.29,6.23,-2.58
0.38,-0.82,0.48,-3.92,4.75,-2.53
0.38,-0.82,0.50,-2.70,1.36,-0.66
0.38,-0.83,0.49,-1.50,-2.87,1.44
0.38,-0.82,0.49,0.09,-5.15,2.56
0.37,-0.82,0.50,-0.40,-5.18,2.38
0.36,-0.82,0.49,-1.27,-2.55,1.40
0.37,-0.82,0.49,-2.75,0.41,-0.02
0.37,-0.83,0.50,-3.79,2.47,-1.21
0.37,-0.82,0.48,-4.00,2.79,-1.18
0.37,-0.83,0.48,-3.88,2.75,-1.16
0.37,-0.82,0.49,-3.47,1.65,-0.99
0.38,-0.82,0.48,-3.04,0.21,-0.58
0.38,-0.82,0.49,-2.44,-0.81,-0.11
0.37,-0.82,0.48,-1.92,-1.45,0.09
0.36,-0.82,0.50,-1.98,-0.85,-0.11
0.37,-0.83,0.49,-2.15,0.15,-0.09
0.37,-0.82,0.49,-2.64,1.79,-0.08
0.37,-0.82,0.48,-2.95,3.39,-0.73
0.38,-0.82,0.49,-2.02,3.80,-1.91
0.38,-0.81,0.48,-1.36,2.95,-1.79
0.39,-0.81,0.48,-1.01,-1.56,0.15
0.37,-0.82,0.48,-1.37,-3.11,2.69
0.36,-0.82,0.49,-1.82,-0.76,1.66
0.37,-0.82,0.50,-2.79,4.03,-0.46
0.37,-0.81,0.50,-3.47,7.28,-2.69
0.38,-0.82,0.49,-3.63,8.05,-3.86
0.38,-0.82,0.49,-2.18,5.51,-3.28
0.39,-0.82,0.49,-1.42,0.98,-1.62
0.38,-0.82,0.50,0.09,-1.50,0.21
0.37,-0.81,0.50,1.07,-4.20,0.14
0.38,-0.82,0.50,0.82,-3.60,0.60
